sep=;
ACCELEROMETER X (m/s²);ACCELEROMETER Y (m/s²);ACCELEROMETER Z (m/s²);GRAVITY X (m/s²);GRAVITY Y (m/s²);GRAVITY Z (m/s²);LINEAR ACCELERATION X (m/s²);LINEAR ACCELERATION Y (m/s²);LINEAR ACCELERATION Z (m/s²);GYROSCOPE X (rad/s);GYROSCOPE Y (rad/s);GYROSCOPE Z (rad/s);LIGHT ( lux);MAGNETIC FIELD X (μT);MAGNETIC FIELD Y (μT);MAGNETIC FIELD Z (μT);ORIENTATION X (°);ORIENTATION Y (°);ORIENTATION Z (°);PROXIMITY ( cm);ATMOSPHERIC PRESSURE (hPa);SOUND LEVEL (dB);LOCATION Latitude : ;LOCATION Longitude : ;LOCATION Altitude ( m);LOCATION Speed ( Kmh);LOCATION Accuracy ( m);Satellites in range;Temperature ( °C);Level (%);Voltage (Volt);Time since start in ms ;YYYY-MO-DD HH-MI-SS_SSS
2.8922;2.308;5.5833;4.4437;4.5034;7.4929;-2.7486;-2.9807;0.408;0.3867;0.1897;0.3858;6021.0;-33.42;109.62;-0.48;15.07;-27.34;-30.67;8.0;867.36;56.551;19.520088;-96.91568;;;96.77419;0 / 0;95.2;87.0;4.073;8566;2014-11-08 13:53:15:570
1.2641;2.5283;5.1811;3.5588;4.2029;8.1142;-0.8486;-1.9715;0.5432;-0.2978;0.4175;-1.0388;5612.0;-36.42;108.0;-0.66;18.09;-29.97;-22.27;8.0;867.42;56.551;19.520088;-96.91568;;;96.77419;0 / 0;95.2;87.0;4.073;127;2014-11-08 13:53:15:941
2.6049;2.6336;9.3948;3.627;4.551;7.8933;-1.003;-1.9078;1.7985;0.0675;-1.3192;-1.0183;5612.0;-46.74;107.34;1.02;22.63;-27.65;-24.68;8.0;867.38;56.551;19.520088;-96.91568;;;96.77419;0 / 0;95.2;87.0;4.073;9089;2014-11-08 13:53:16:093
1.1588;4.9416;12.6988;1.8244;5.0528;8.2043;-0.5028;0.1187;7.0898;-0.7709;-0.9951;-1.1573;7340.0;-32.22;105.96;1.32;18.9;-27.59;0.19;8.0;867.43;56.551;19.520088;-96.91568;;;96.77419;0 / 0;95.2;87.0;4.073;1403;2014-11-08 13:53:17:217
1.1588;4.9416;12.6988;1.8244;5.0528;8.2043;-0.5028;0.1187;7.0898;-0.7709;-0.9951;-1.1573;7340.0;-32.22;105.96;1.32;18.9;-27.59;0.19;8.0;867.43;56.551;19.520088;-96.91568;;;96.77419;0 / 0;95.2;87.0;4.073;10216;2014-11-08 13:53:17:220
-1.0822;5.8897;4.1468;1.4005;6.2302;7.4427;-3.2967;1.0003;-2.6543;-0.1494;1.452;-0.1048;4495.0;-35.34;103.86;2.46;21.17;-36.31;-15.86;8.0;867.48;50.461;19.520088;-96.91568;;;96.77419;0 / 0;95.2;87.0;4.073;1924;2014-11-08 13:53:17:738
-1.0822;5.8897;4.1468;1.4005;6.2302;7.4427;-3.2967;1.0003;-2.6543;-0.1494;1.452;-0.1048;4495.0;-35.34;103.86;2.46;21.17;-36.31;-15.86;8.0;867.48;50.461;19.520088;-96.91568;;;96.77419;0 / 0;95.2;87.0;4.073;10735;2014-11-08 13:53:17:739
3.3902;5.114;10.1131;1.632;6.3492;7.2934;1.1357;-1.0245;2.0727;0.5614;-0.015;0.0379;4160.0;-22.98;94.26;4.02;17.65;-42.44;-2.06;8.0;867.41;53.386;19.520088;-96.91568;;;96.77419;0 / 0;95.2;87.0;4.073;2426;2014-11-08 13:53:18:240
3.3902;5.114;10.1131;1.632;6.3492;7.2934;1.1357;-1.0245;2.0727;0.5614;-0.015;0.0379;4160.0;-22.98;94.26;4.02;17.65;-42.44;-2.06;8.0;867.41;53.386;19.520088;-96.91568;;;96.77419;0 / 0;95.2;87.0;4.073;11238;2014-11-08 13:53:18:242
4.5969;6.1579;11.8082;2.955;6.7931;6.4258;1.8142;-0.8459;5.9953;0.7947;-0.6032;-0.1457;3626.0;-30.66;98.82;4.32;20.97;-43.84;-24.7;8.0;867.41;56.191;19.520088;-96.91568;;;96.77419;0 / 0;95.2;87.0;4.073;2966;2014-11-08 13:53:18:780
4.5969;6.1579;11.8082;2.955;6.7931;6.4258;1.8142;-0.8459;5.9953;0.1368;-0.7242;-0.7501;3626.0;-30.66;98.82;4.32;20.97;-43.84;-24.7;8.0;867.41;56.191;19.520088;-96.91568;;;96.77419;0 / 0;95.2;87.0;4.073;11782;2014-11-08 13:53:18:786
0.7757;0.9673;12.1242;2.9831;7.9404;4.9215;-5.1666;-7.5861;6.7909;0.3204;-6.0274;-3.4138;2421.0;-57.42;100.68;15.36;34.13;-43.04;-29.53;8.0;867.52;76.027;19.520004;-96.91566;;;154.8387;0 / 0;95.2;87.0;4.073;3481;2014-11-08 13:53:19:295
0.7757;0.9673;12.1242;2.9831;7.9404;4.9215;-5.1666;-7.5861;6.7909;0.3204;-6.0274;-3.4138;2421.0;-57.42;100.68;15.36;34.13;-43.04;-29.53;8.0;867.52;76.027;19.520004;-96.91566;;;154.8387;0 / 0;95.2;87.0;4.073;12293;2014-11-08 13:53:19:297
8.8298;-0.7374;11.2815;0.6144;5.4424;8.1347;8.5889;-5.7297;3.166;1.9465;2.7504;4.9963;3286.0;-32.4;103.08;4.5;28.37;-36.08;-15.7;8.0;867.37;65.876;19.520004;-96.91566;;;154.8387;0 / 0;95.2;87.0;4.073;4003;2014-11-08 13:53:19:817
8.8298;-0.7374;11.2815;0.6144;5.4424;8.1347;8.5889;-5.7297;3.166;1.9465;2.7504;4.9963;3286.0;-32.4;103.08;4.5;28.37;-36.08;-15.7;8.0;867.37;65.876;19.520004;-96.91566;;;154.8387;0 / 0;95.2;87.0;4.073;12818;2014-11-08 13:53:19:822
3.984;5.8131;6.9623;1.3493;4.7252;8.4866;2.9507;1.7679;0.1325;1.1405;-0.066;-0.1866;3911.0;-30.66;109.68;6.48;17.91;-28.89;-15.17;8.0;867.56;71.571;19.520004;-96.91566;;;154.8387;0 / 0;95.2;87.0;4.073;4829;2014-11-08 13:53:20:643
3.984;5.8131;6.9623;1.3493;4.7252;8.4866;2.9507;1.7679;0.1325;1.1405;-0.066;-0.1866;3911.0;-30.66;109.68;6.48;17.91;-28.89;-15.17;8.0;867.56;71.571;19.520004;-96.91566;;;154.8387;0 / 0;95.2;87.0;4.073;13641;2014-11-08 13:53:20:645
2.49;2.2697;4.616;2.5107;5.0577;8.0179;0.0271;-3.0945;-3.8328;0.4475;0.7364;-0.4166;3561.0;-28.08;109.38;6.6;17.0;-31.05;-17.39;8.0;867.59;71.287;19.520004;-96.91566;;;154.8387;0 / 0;95.2;87.0;4.073;5493;2014-11-08 13:53:21:307
2.49;2.2697;4.616;2.5107;5.0577;8.0179;0.0271;-3.0945;-3.8328;0.4475;0.7364;-0.4166;3561.0;-28.08;109.38;6.6;17.0;-31.05;-17.39;8.0;867.59;71.287;19.520004;-96.91566;;;154.8387;0 / 0;95.2;87.0;4.073;14304;2014-11-08 13:53:21:308
2.873;1.8579;8.0158;1.9948;5.6403;7.7703;0.7346;-3.3228;-0.9325;-1.5818;0.1808;-0.4759;4798.0;-33.12;114.24;9.24;19.53;-32.26;-15.34;8.0;867.47;61.012;19.520004;-96.91566;;;154.8387;0 / 0;95.2;87.0;4.073;6011;2014-11-08 13:53:21:825
2.873;1.8579;8.0158;1.9948;5.6403;7.7703;0.7346;-3.3228;-0.9325;-1.5818;0.1808;-0.4759;4798.0;-33.12;114.24;9.24;19.53;-32.26;-15.34;8.0;867.47;61.012;19.520004;-96.91566;;;154.8387;0 / 0;95.2;87.0;4.073;14823;2014-11-08 13:53:21:827
2.8347;2.7007;5.6886;2.9171;4.4459;8.2398;-0.1398;-1.7836;-2.7332;-0.6109;-0.1484;-0.5424;4570.0;-33.0;117.78;10.08;18.17;-27.43;-17.97;8.0;867.59;54.065;19.520004;-96.91566;;;154.8387;0 / 0;95.2;87.0;4.073;6522;2014-11-08 13:53:22:336
2.8347;2.7007;5.6886;2.9171;4.4459;8.2398;-0.1398;-1.7836;-2.7332;-0.6109;-0.1484;-0.5424;4570.0;-33.0;117.78;10.08;18.17;-27.43;-17.97;8.0;867.59;54.065;19.520004;-96.91566;;;154.8387;0 / 0;95.2;87.0;4.073;15335;2014-11-08 13:53:22:339
2.2793;2.5187;7.6998;2.9276;2.7752;8.9386;-0.543;0.0212;-1.8134;-0.7624;-0.8234;0.3024;4616.0;-37.62;121.2;12.78;19.12;-28.96;-29.92;8.0;867.56;55.948;19.520004;-96.91566;;;154.8387;0 / 0;95.2;87.0;4.073;7038;2014-11-08 13:53:22:852
2.2793;2.5187;7.6998;2.9276;2.7752;8.9386;-0.543;0.0212;-1.8134;-0.7624;-0.8234;0.3024;4616.0;-37.62;121.2;12.78;19.12;-28.96;-29.92;8.0;867.56;55.948;19.520004;-96.91566;;;154.8387;0 / 0;95.2;87.0;4.073;15849;2014-11-08 13:53:22:853
5.3726;1.0534;7.5369;2.6759;4.005;8.5422;2.0573;-2.1958;3.8259;1.9835;0.2896;0.8189;4651.0;-41.16;123.0;15.78;21.31;-22.91;-19.65;8.0;867.5;56.273;19.520004;-96.91566;;;154.8387;0 / 0;95.2;87.0;4.073;7560;2014-11-08 13:53:23:374
4.4628;-0.2777;6.9815;2.6759;4.005;8.5422;1.909;-3.9693;-1.8038;1.9835;0.2896;0.8189;4101.0;-41.16;123.0;15.78;21.31;-22.91;-19.65;8.0;867.5;56.273;19.520004;-96.91566;;;154.8387;0 / 0;95.2;87.0;4.073;16421;2014-11-08 13:53:23:425
4.9991;2.7677;9.165;3.9989;3.8955;8.0625;-0.169;-0.3176;-0.7852;-0.3167;-0.328;0.0788;4196.0;-40.38;123.24;14.88;20.35;-23.41;-26.38;8.0;867.47;73.275;19.520004;-96.91566;;;154.8387;0 / 0;95.2;87.0;4.073;8069;2014-11-08 13:53:23:883
5.0087;2.0016;7.7668;3.9989;3.8955;8.0625;1.5765;-1.8044;0.795;0.504;0.0583;-0.4099;4196.0;-40.38;123.24;14.88;20.35;-23.41;-26.38;8.0;867.47;55.945;19.520004;-96.91566;;;154.8387;0 / 0;95.2;87.0;4.073;16947;2014-11-08 13:53:23:951
3.1699;4.3096;8.8107;3.7187;4.274;8.0047;-0.6496;-0.1326;0.9462;-0.135;-0.2615;-0.6478;3877.0;-38.52;122.88;13.56;20.1;-25.51;-25.23;8.0;867.58;54.721;19.520004;-96.91566;;;154.8387;0 / 0;95.2;87.0;4.073;8570;2014-11-08 13:53:24:384
2.8826;3.4093;8.0732;3.5785;4.4957;7.9469;-0.3282;-1.2822;0.0826;0.0257;-0.0519;-0.8051;3877.0;-38.94;122.82;13.38;20.19;-27.29;-24.24;8.0;867.58;54.721;19.520004;-96.91566;;;154.8387;0 / 0;95.2;87.0;4.073;17456;2014-11-08 13:53:24:460
3.1508;6.292;10.0461;2.7724;4.5652;8.2246;0.2156;-0.2173;-1.3772;-0.5189;0.3961;-0.0556;3588.0;-42.96;123.72;15.42;22.6;-28.84;-21.09;8.0;867.62;57.861;19.520004;-96.91566;;;154.8387;0 / 0;95.2;87.0;4.073;9086;2014-11-08 13:53:24:900
3.1508;6.292;10.0461;3.4454;4.2152;8.1567;0.2156;-0.2173;-1.3772;-0.5189;0.3961;-0.0556;3588.0;-44.22;124.08;16.56;22.72;-25.46;-22.9;8.0;867.62;57.861;19.520004;-96.91566;;;154.8387;0 / 0;95.2;87.0;4.073;17962;2014-11-08 13:53:24:966
4.6926;2.4708;7.5657;3.5789;4.7784;7.7801;1.1138;-2.3075;-0.2144;-0.055;0.1912;-0.0247;3818.0;-46.92;125.28;18.0;24.39;-29.16;-24.7;8.0;867.47;52.8;19.520004;-96.91566;;;154.8387;0 / 0;95.2;87.0;4.073;9595;2014-11-08 13:53:25:409
4.0701;3.8211;5.9376;3.4836;4.6208;7.9173;0.5866;-0.7997;-1.9797;0.0608;0.5095;-0.5357;3862.0;-47.04;125.94;18.36;23.64;-26.8;-26.1;8.0;867.57;52.8;19.520004;-96.91566;;;154.8387;0 / 0;95.2;87.0;4.073;18813;2014-11-08 13:53:25:817
4.4628;3.8403;12.5839;2.6327;5.9858;7.3082;1.8301;-2.1455;5.2757;-0.1952;0.6454;0.4591;3862.0;-47.04;125.94;18.36;23.64;-26.8;-26.1;8.0;867.57;61.188;19.520004;-96.91566;;;154.8387;0 / 0;95.2;87.0;4.073;10109;2014-11-08 13:53:25:923
2.8826;4.5011;4.9512;3.5383;5.3703;7.4034;-1.2782;-0.5052;-2.3277;0.0107;-1.1686;0.6506;3447.0;-46.38;127.14;14.22;23.33;-33.2;-25.54;8.0;867.5;71.629;19.520004;-96.91566;;;154.8387;0 / 0;95.2;87.0;4.073;19313;2014-11-08 13:53:26:317
2.4038;5.4205;4.4724;3.0877;6.1985;6.9437;-0.1668;-1.64;-2.2032;0.3916;0.1484;-1.0049;3154.0;-46.38;126.66;12.96;24.73;-39.2;-23.97;8.0;867.59;71.629;19.520004;-96.91566;;;154.8387;0 / 0;95.2;87.0;4.073;10620;2014-11-08 13:53:26:434
4.3096;3.2944;4.6448;3.3837;5.9942;6.9851;2.1517;-2.6423;-1.1432;0.7165;0.9221;0.1228;2646.0;-47.46;125.76;9.9;23.61;-37.68;-25.85;8.0;867.58;65.255;19.520004;-96.91566;;;154.8387;0 / 0;95.2;87.0;4.073;19952;2014-11-08 13:53:26:956
6.0908;4.6352;7.4603;3.9798;5.7718;6.8569;1.4598;-1.1175;0.3831;0.6619;-0.3152;-0.7095;2646.0;-47.46;125.76;9.9;23.61;-37.68;-25.85;8.0;867.58;65.255;19.520004;-96.91566;;;154.8387;0 / 0;95.2;87.0;4.073;11187;2014-11-08 13:53:27:001
2.4229;5.5929;6.4548;4.5027;6.2625;6.0562;-1.9457;-0.7941;0.2645;-1.0464;-0.6191;-0.9865;2571.0;-52.26;120.48;8.16;23.28;-39.69;-36.63;8.0;867.55;54.132;19.520004;-96.91566;;;154.8387;0 / 0;95.2;87.0;4.073;20463;2014-11-08 13:53:27:467
2.4229;5.5929;6.4548;4.5027;6.2625;6.0562;-1.9457;-0.7941;0.2645;-1.0464;-0.6191;-0.9865;2571.0;-52.26;120.48;8.16;23.28;-39.69;-36.63;8.0;867.55;51.772;19.520004;-96.91566;;;154.8387;0 / 0;95.2;87.0;4.073;11712;2014-11-08 13:53:27:526
6.6559;6.5218;6.359;4.2734;5.7113;6.7298;0.8119;-0.0227;-1.4434;-0.9459;-0.7165;-0.4545;2590.0;-59.58;115.92;12.48;28.05;-35.62;-32.42;8.0;867.58;50.111;19.520004;-96.91566;;;154.8387;0 / 0;95.2;87.0;4.073;20963;2014-11-08 13:53:27:967
6.7612;5.2002;8.0828;5.0131;5.5589;6.3355;1.7098;0.8289;1.5271;-1.2831;-1.4795;-0.222;2590.0;-62.52;114.54;15.0;28.04;-34.53;-38.35;8.0;867.58;50.111;19.520004;-96.91566;;;154.8387;0 / 0;95.2;87.0;4.073;12235;2014-11-08 13:53:28:049
5.0374;5.4875;4.3479;4.7272;6.0884;6.0627;-0.0825;-1.6639;-1.9255;-0.4545;-1.4016;-1.4615;2735.0;-69.48;108.84;25.92;35.4;-38.38;-37.94;8.0;867.54;70.796;19.520004;-96.91566;;;154.8387;0 / 0;95.2;87.0;4.073;21479;2014-11-08 13:53:28:483
6.359;7.4603;4.367;4.2707;6.8878;5.5218;2.1362;-0.1744;-1.126;-0.365;-0.7535;-1.8332;2208.0;-70.02;105.24;29.64;39.91;-44.62;-37.72;8.0;867.55;70.796;19.520004;-96.91566;;;154.8387;0 / 0;95.2;87.0;4.073;12768;2014-11-08 13:53:28:582
3.0933;4.4532;2.557;4.0909;7.8877;4.1496;-0.4039;-3.2238;-0.5296;-0.2169;-1.1417;-0.0739;1814.0;-66.3;91.26;40.62;48.16;-53.54;-44.59;8.0;867.56;75.259;19.520004;-96.91566;;;154.8387;0 / 0;95.2;87.0;4.073;21979;2014-11-08 13:53:28:983
2.8347;8.4946;6.1196;4.3791;7.7392;4.135;-2.0328;-0.1257;0.4715;-1.197;-0.7972;-0.2905;1814.0;-64.02;86.28;43.26;48.62;-52.11;-46.64;8.0;867.56;75.259;19.520004;-96.91566;;;154.8387;0 / 0;95.2;87.0;4.073;13275;2014-11-08 13:53:29:089
9.232;2.2218;8.1882;5.1573;4.4191;7.0742;2.1402;-2.3697;-0.6194;0.5299;0.4924;0.1396;4390.0;-65.28;84.78;38.4;43.37;-26.78;-36.09;8.0;879.84;65.731;19.520004;-96.91566;;;154.8387;0 / 0;95.2;87.0;4.073;23515;2014-11-08 13:53:30:519
9.232;2.2218;8.1882;5.1573;4.4191;7.0742;2.1402;-2.3697;-0.6194;0.5299;0.4924;0.1396;4390.0;-65.28;84.78;38.4;43.37;-26.78;-36.09;8.0;879.84;65.731;19.520004;-96.91566;;;154.8387;0 / 0;95.2;87.0;4.073;14709;2014-11-08 13:53:30:523
10.4387;3.6105;7.9966;6.6463;4.9643;5.23;3.7924;-1.3538;2.7666;0.7611;0.2831;0.3748;2509.0;-70.08;94.5;43.32;38.67;-30.41;-51.8;8.0;867.63;70.824;19.520004;-96.91566;;;154.8387;0 / 0;95.2;87.0;4.073;24404;2014-11-08 13:53:31:408
10.4387;3.6105;7.9966;6.6463;4.9643;5.23;3.7924;-1.3538;2.7666;0.7611;0.2831;0.3748;2509.0;-70.08;94.5;43.32;38.67;-30.41;-51.8;8.0;867.63;70.824;19.520004;-96.91566;;;154.8387;0 / 0;95.2;87.0;4.073;15598;2014-11-08 13:53:31:412
4.2042;3.802;3.7062;5.1898;4.999;6.6518;-0.9856;-1.197;-2.9455;-0.5192;-0.0464;0.7526;4045.0;-70.32;93.72;41.7;44.96;-36.61;-37.73;8.0;867.63;53.455;19.520004;-96.91566;;;154.8387;0 / 0;95.2;87.0;4.073;24991;2014-11-08 13:53:31:995
4.2042;3.802;3.7062;5.1898;4.999;6.6518;-0.9856;-1.197;-2.9455;-0.5192;-0.0464;0.7526;4045.0;-70.32;93.72;41.7;44.96;-36.61;-37.73;8.0;867.63;53.455;19.520004;-96.91566;;;154.8387;0 / 0;95.2;87.0;4.073;16187;2014-11-08 13:53:32:001
7.1251;5.7365;2.0111;5.8849;6.5615;4.2995;-0.1867;-2.7978;-1.7808;2.3644;-0.1167;0.3118;1490.0;-72.48;97.08;39.54;38.15;-42.0;-53.85;8.0;867.64;52.422;19.520004;-96.91566;;;154.8387;0 / 0;95.2;87.0;4.073;25504;2014-11-08 13:53:32:508
7.1251;5.7365;2.0111;5.8849;6.5615;4.2995;-0.1867;-2.7978;-1.7808;3.3164;-2.9511;0.2993;1490.0;-72.48;97.08;39.54;38.15;-42.0;-53.85;8.0;867.64;52.422;19.520004;-96.91566;;;154.8387;0 / 0;95.2;87.0;4.073;16711;2014-11-08 13:53:32:525
-1.1205;0.565;-6.4069;2.6264;6.2529;-7.0833;-3.0574;-5.7549;0.5519;0.5892;-2.4994;-0.5925;636.0;-66.06;105.9;52.56;341.24;-39.61;-159.66;8.0;867.56;47.475;19.520004;-96.91566;;;154.8387;0 / 0;95.2;87.0;4.073;26029;2014-11-08 13:53:33:033
-1.1205;0.565;-6.4069;2.6264;6.2529;-7.0833;-3.0574;-5.7549;0.5519;0.5892;-2.4994;-0.5925;636.0;-66.06;105.9;52.56;341.24;-39.61;-159.66;8.0;867.56;47.475;19.520004;-96.91566;;;154.8387;0 / 0;95.2;87.0;4.073;17232;2014-11-08 13:53:33:046
-3.2178;1.8962;-6.6559;-2.6728;4.2127;-8.4427;0.0966;-1.4738;0.9345;-0.4282;-0.2062;-0.2297;614.0;-47.82;113.34;68.1;331.81;-25.44;162.43;8.0;867.68;49.178;19.520004;-96.91566;;;154.8387;0 / 0;95.2;87.0;4.073;26557;2014-11-08 13:53:33:561
-3.2178;1.8962;-6.6559;-2.6728;4.2127;-8.4427;0.0966;-1.4738;0.9345;-0.4282;-0.2062;-0.2297;614.0;-47.82;113.34;68.1;331.81;-25.44;162.43;8.0;867.68;49.178;19.520004;-96.91566;;;154.8387;0 / 0;95.2;87.0;4.073;17756;2014-11-08 13:53:33:570
12.0955;2.6815;-4.6448;6.501;5.198;-5.1854;7.7876;-2.6027;0.1288;-0.9459;1.0415;0.2062;521.0;-44.1;117.06;70.92;11.27;-32.01;-128.58;8.0;867.6;47.405;19.520004;-96.91566;;;154.8387;0 / 0;95.2;87.0;4.073;27119;2014-11-08 13:53:34:123
12.0955;2.6815;-4.6448;6.501;5.198;-5.1854;7.7876;-2.6027;0.1288;-0.9459;1.0415;0.2062;521.0;-44.1;117.06;70.92;11.27;-32.01;-128.58;8.0;867.6;47.405;19.520004;-96.91566;;;154.8387;0 / 0;95.2;87.0;4.073;18313;2014-11-08 13:53:34:127
13.2256;4.4915;0.2682;8.4039;4.9867;0.8232;5.0132;-1.7689;0.6708;-0.6396;0.0877;-0.0373;640.0;-56.94;115.74;66.24;28.04;-25.83;-87.73;8.0;867.7;48.132;19.520004;-96.91566;;;154.8387;0 / 0;95.2;87.0;4.073;27625;2014-11-08 13:53:34:629
13.2256;4.4915;0.2682;8.4039;4.9867;0.8232;5.0132;-1.7689;0.6708;-0.6396;0.0877;-0.0373;640.0;-56.94;115.74;66.24;28.04;-25.83;-87.73;8.0;867.7;48.132;19.520004;-96.91566;;;154.8387;0 / 0;95.2;87.0;4.073;18820;2014-11-08 13:53:34:634
8.5808;3.1508;5.0757;7.8176;3.6438;4.6666;0.7632;-0.4931;0.4091;-0.5415;-0.1991;0.4899;910.0;-70.2;106.62;55.32;36.34;-27.89;-61.52;8.0;867.55;46.516;19.520004;-96.91566;;;154.8387;0 / 0;95.2;87.0;4.073;28134;2014-11-08 13:53:35:138
8.5808;3.1508;5.0757;7.8176;3.6438;4.6666;0.7632;-0.4931;0.4091;-0.5415;-0.1991;0.4899;910.0;-70.2;106.62;55.32;36.34;-27.89;-61.52;8.0;867.55;46.516;19.520004;-96.91566;;;154.8387;0 / 0;95.2;87.0;4.073;19330;2014-11-08 13:53:35:144
8.2073;-1.2258;3.553;7.9432;3.0049;4.9037;-0.0615;-3.9913;-0.2973;0.0437;-0.2199;0.6048;483.0;-75.18;104.28;47.58;35.91;-17.84;-58.31;0.0;867.62;53.922;19.520004;-96.91566;;;154.8387;0 / 0;95.2;87.0;4.073;28643;2014-11-08 13:53:35:647
8.2073;-1.2258;3.553;8.1506;1.7985;5.1482;0.0568;-3.0244;-1.5952;0.0437;-0.2199;0.6048;449.0;-75.18;104.28;47.58;35.91;-17.84;-58.31;0.0;867.62;53.922;19.520004;-96.91566;;;154.8387;0 / 0;95.2;87.0;4.073;19866;2014-11-08 13:53:35:680
9.1363;-0.6704;3.0933;8.1664;1.1179;5.3133;0.9699;-1.7883;-2.22;-0.0651;0.6933;0.0473;404.0;-74.52;111.24;48.06;34.85;-4.97;-59.51;3.1;867.51;51.85;19.520004;-96.91566;;;154.8387;0 / 0;95.2;87.0;4.073;29143;2014-11-08 13:53:36:147
8.1499;-0.4405;4.1468;8.0452;1.4722;5.4109;0.1047;-1.9127;-1.2642;-0.0651;0.6933;0.0473;404.0;-74.52;111.24;48.06;34.85;-4.97;-59.51;3.1;867.51;51.85;19.520004;-96.91566;;;154.8387;0 / 0;95.2;87.0;4.073;20372;2014-11-08 13:53:36:186
8.3222;1.2929;3.735;7.4104;4.1897;4.8686;0.9119;-2.8968;-1.1336;1.7825;0.2028;0.0119;398.0;-74.22;116.82;45.78;33.22;-18.9;-55.43;3.1;867.67;51.698;19.520004;-96.91566;;;154.8387;0 / 0;95.2;87.0;4.073;29659;2014-11-08 13:53:36:663
8.3222;1.2929;3.735;7.4104;4.1897;4.8686;0.9119;-2.8968;-1.1336;1.7825;0.2028;0.0119;418.0;-74.22;116.82;45.78;33.22;-18.9;-55.43;3.1;867.64;51.698;19.520004;-96.91566;;;154.8387;0 / 0;95.2;87.0;4.073;20892;2014-11-08 13:53:36:706
6.608;4.7405;5.612;7.3673;4.5097;4.6428;-0.6444;-1.5313;0.8543;0.1109;0.6295;-0.4475;837.0;-74.46;117.96;36.24;29.27;-27.38;-57.78;3.1;867.66;53.796;19.520004;-96.91566;;;154.8387;0 / 0;95.2;87.0;4.073;30176;2014-11-08 13:53:37:180
6.608;4.7405;5.612;7.4641;4.2851;4.7007;-0.8561;0.4554;0.9114;0.558;-0.6399;0.4047;837.0;-74.46;117.96;36.24;29.27;-27.38;-57.78;3.1;867.66;53.796;19.520004;-96.91566;;;154.8387;0 / 0;95.2;87.0;4.073;21401;2014-11-08 13:53:37:215
5.8323;5.0566;5.0757;6.0412;7.1828;2.8429;-0.2089;-2.1262;2.2328;0.6179;-0.9499;-0.1298;613.0;-73.74;116.76;26.34;27.2;-41.93;-57.75;3.1;867.54;53.525;19.520004;-96.91566;;;154.8387;0 / 0;95.2;87.0;4.073;30680;2014-11-08 13:53:37:684
8.4851;6.924;1.2258;5.0649;7.9656;2.6582;3.4202;-1.0416;-1.4324;0.8253;-2.197;-1.4499;613.0;-73.5;114.36;24.3;24.01;-47.09;-64.8;3.1;867.54;53.525;19.520004;-96.91566;;;154.8387;0 / 0;95.2;87.0;4.073;21928;2014-11-08 13:53:37:742
6.6559;7.6231;-2.059;5.3429;8.2224;-0.1251;0.0488;-1.2888;-1.4646;0.814;-1.4441;0.0153;1196.0;-73.62;106.38;22.62;26.9;-56.27;-63.59;3.1;867.64;61.481;19.520004;-96.91566;;;154.8387;0 / 0;95.2;87.0;4.073;31181;2014-11-08 13:53:38:185
6.6559;7.6231;-2.059;5.3429;8.2224;-0.1251;0.0488;-1.2888;-1.4646;0.814;-1.4441;0.0153;1196.0;-74.16;101.04;22.32;9.78;-56.98;-91.34;3.1;867.64;61.481;19.520004;-96.91566;;;154.8387;0 / 0;95.2;87.0;4.073;22428;2014-11-08 13:53:38:242
5.2577;8.7628;2.4134;4.6126;8.4531;1.8544;0.6451;0.3097;0.5589;-2.4184;4.6966;-0.3085;1492.0;-73.86;93.36;21.84;4.51;-56.64;-100.49;3.1;867.63;67.975;19.520004;-96.91566;;;154.8387;0 / 0;95.2;87.0;4.073;31695;2014-11-08 13:53:38:699
5.2577;8.7628;2.4134;4.6126;8.4531;1.8544;0.6451;0.3097;0.5589;-2.4184;4.6966;-0.3085;1492.0;-73.86;93.36;21.84;4.51;-56.64;-100.49;3.1;867.63;67.975;19.520004;-96.91566;;;154.8387;0 / 0;95.2;87.0;4.073;22933;2014-11-08 13:53:38:747
8.9639;-2.9401;9.3948;4.785;0.3861;8.5513;2.2827;-4.5712;1.3702;-1.7006;1.1322;0.1277;4624.0;-31.2;102.48;0.54;15.04;-2.26;-29.23;3.1;867.5;67.975;19.520004;-96.91566;;;154.8387;0 / 0;95.2;87.0;4.073;33011;2014-11-08 13:53:40:015
8.9639;-2.9401;9.3948;4.785;0.3861;8.5513;2.2827;-4.5712;1.3702;-1.7006;1.1322;0.1277;4624.0;-31.2;102.48;0.54;15.04;-2.26;-29.23;3.1;867.5;67.975;19.520004;-96.91566;;;154.8387;0 / 0;95.2;87.0;4.073;24204;2014-11-08 13:53:40:018
6.9719;-3.5913;7.1251;5.9611;1.1608;7.6999;1.0108;-4.7521;-0.5747;1.4639;-0.0773;-0.2022;3479.0;-37.08;135.66;9.06;15.23;-8.06;-27.34;3.1;867.68;71.754;19.5198;-96.91567;;;420.96774;0 / 0;95.2;87.0;4.073;33606;2014-11-08 13:53:40:610
6.9719;-3.5913;7.1251;5.9611;1.1608;7.6999;1.0108;-4.7521;-0.5747;1.4639;-0.0773;-0.2022;3479.0;-37.08;135.66;9.06;15.23;-8.06;-27.34;3.1;867.68;71.754;19.5198;-96.91567;;;420.96774;0 / 0;95.2;87.0;4.073;24799;2014-11-08 13:53:40:613
8.9543;2.0207;6.5122;7.2233;3.357;5.7205;1.1372;-4.171;-0.7214;1.3079;-2.6799;-0.1164;376.0;-38.52;124.44;3.3;11.87;-20.02;-51.62;3.1;867.7;50.417;19.5198;-96.91567;;;420.96774;0 / 0;95.2;87.0;4.073;34106;2014-11-08 13:53:41:110
8.9543;2.0207;6.5122;7.2233;3.357;5.7205;1.1372;-4.171;-0.7214;1.3079;-2.6799;-0.1164;376.0;-38.52;124.44;3.3;11.87;-20.02;-51.62;3.1;867.7;50.417;19.5198;-96.91567;;;420.96774;0 / 0;95.2;87.0;4.073;25300;2014-11-08 13:53:41:114
6.5984;3.4189;4.1563;7.7452;3.8757;4.6002;2.0327;-1.3378;-2.1581;-1.0449;0.8549;-0.3021;253.0;-46.44;105.3;-1.68;10.95;-23.28;-59.29;3.1;867.61;55.754;19.5198;-96.91567;;;420.96774;0 / 0;95.2;87.0;4.073;34641;2014-11-08 13:53:41:645
6.5984;3.4189;4.1563;7.7452;3.8757;4.6002;2.0327;-1.3378;-2.1581;-1.0449;0.8549;-0.3021;253.0;-46.44;105.3;-1.68;10.95;-23.28;-59.29;3.1;867.61;55.754;19.5198;-96.91567;;;420.96774;0 / 0;95.2;87.0;4.073;25836;2014-11-08 13:53:41:650
8.5521;3.6392;1.1779;7.4161;6.0324;2.1866;1.8542;-2.4028;-0.2521;0.0846;1.1545;-0.379;201.0;-54.42;95.16;0.84;8.66;-37.96;-73.57;3.1;867.6;55.387;19.5198;-96.91567;;;420.96774;0 / 0;95.2;87.0;4.073;35141;2014-11-08 13:53:42:145
8.5521;3.6392;1.1779;7.4161;6.0324;2.1866;1.8542;-2.4028;-0.2521;0.0846;1.1545;-0.379;201.0;-54.42;95.16;0.84;8.66;-37.96;-73.57;3.1;867.6;55.387;19.5198;-96.91567;;;420.96774;0 / 0;95.2;87.0;4.073;26336;2014-11-08 13:53:42:150
8.3893;4.4436;-0.8906;7.3162;6.526;-0.2351;1.5137;-1.7568;-1.0003;-0.3152;-0.0693;-0.0672;72.0;-56.76;89.76;3.78;3.95;-40.97;-86.72;3.1;867.66;46.187;19.5198;-96.91567;;;420.96774;0 / 0;95.2;87.0;4.073;35654;2014-11-08 13:53:42:658
8.3893;4.4436;-0.8906;7.3162;6.526;-0.2351;1.5137;-1.7568;-1.0003;-0.3152;-0.0693;-0.0672;72.0;-56.76;89.76;3.78;3.95;-40.97;-86.72;3.1;867.66;46.187;19.5198;-96.91567;;;420.96774;0 / 0;95.2;87.0;4.073;26847;2014-11-08 13:53:42:661
8.0158;4.1946;-1.6664;7.021;6.7928;-0.8567;0.4776;-1.966;-0.5224;0.2144;-0.3775;0.3387;72.0;-58.92;83.76;8.76;1.0;-43.84;-96.96;3.1;867.68;46.26;19.5198;-96.91567;;;420.96774;0 / 0;95.2;87.0;4.073;36178;2014-11-08 13:53:43:182
8.0158;4.1946;-1.6664;6.885;6.909;-1.0166;1.1308;-2.7143;-0.6498;0.2144;-0.3775;0.3387;72.0;-58.92;83.76;8.76;1.0;-43.84;-96.96;3.1;867.68;46.26;19.5198;-96.91567;;;420.96774;0 / 0;95.2;87.0;4.073;27372;2014-11-08 13:53:43:186
8.983;4.9608;-1.6568;6.754;7.0135;-1.1684;1.7502;-2.0527;-0.1245;-0.0892;-0.1533;0.1133;75.0;-59.52;79.56;11.7;0.92;-45.66;-99.81;3.1;867.71;59.572;19.5198;-96.91567;;;420.96774;0 / 0;95.2;87.0;4.073;36704;2014-11-08 13:53:43:708
8.983;4.9608;-1.6568;6.754;7.0135;-1.1684;1.7502;-2.0527;-0.1245;-0.0892;-0.1533;0.1133;75.0;-59.52;79.56;11.7;0.92;-45.66;-99.81;3.1;867.71;59.572;19.5198;-96.91567;;;420.96774;0 / 0;95.2;87.0;4.073;27897;2014-11-08 13:53:43:711
8.667;4.7405;-1.8004;6.8945;6.8694;-1.203;1.3702;-2.2055;-0.5495;0.015;-0.1097;0.1081;73.0;-59.52;78.6;11.58;0.87;-44.47;-99.9;3.1;867.65;62.232;19.5198;-96.91567;;;420.96774;0 / 0;95.2;87.0;4.073;37235;2014-11-08 13:53:44:239
8.667;4.7405;-1.8004;6.8945;6.8694;-1.203;1.3702;-2.2055;-0.5495;0.015;-0.1097;0.1081;73.0;-59.52;78.6;11.58;0.87;-44.47;-99.9;3.1;867.65;62.232;19.5198;-96.91567;;;420.96774;0 / 0;95.2;87.0;4.073;28428;2014-11-08 13:53:44:242
8.2265;4.9799;-1.8292;6.843;6.8793;-1.421;1.5176;-2.158;-0.5231;-0.1836;-0.2645;-0.0247;78.0;-59.94;78.96;11.82;359.74;-44.55;-101.73;3.1;867.72;49.411;19.5198;-96.91567;;;420.96774;0 / 0;95.2;87.0;4.073;37735;2014-11-08 13:53:44:739
8.2265;4.9799;-1.8292;6.843;6.8793;-1.421;1.5176;-2.158;-0.5231;-0.1836;-0.2645;-0.0247;78.0;-59.94;78.96;11.82;359.74;-44.55;-101.73;3.1;867.72;49.411;19.5198;-96.91567;;;420.96774;0 / 0;95.2;87.0;4.073;28928;2014-11-08 13:53:44:742
8.2935;5.5162;-1.5419;6.5491;7.23;-1.0037;1.6394;-2.1074;-0.3478;-0.3051;-0.2508;0.0397;69.0;-60.06;79.44;11.76;1.13;-46.77;-99.49;3.1;867.73;57.211;19.5198;-96.91567;;;420.96774;0 / 0;95.2;87.0;4.073;38236;2014-11-08 13:53:45:240
8.2935;5.5162;-1.5419;6.5491;7.23;-1.0037;1.6394;-2.1074;-0.3478;-0.3051;-0.2508;0.0397;69.0;-60.06;79.44;11.76;1.13;-46.77;-99.49;3.1;867.73;57.211;19.5198;-96.91567;;;420.96774;0 / 0;95.2;87.0;4.073;29429;2014-11-08 13:53:45:243
8.2456;5.2864;-2.1644;6.5074;7.2065;-1.3746;1.3145;-1.8124;-0.6961;0.1695;0.1396;0.2019;45.0;-61.32;82.2;11.46;358.95;-47.3;-101.93;3.1;867.67;69.562;19.5198;-96.91567;;;420.96774;0 / 0;95.2;87.0;4.073;38742;2014-11-08 13:53:45:746
8.2456;5.2864;-2.1644;6.5074;7.2065;-1.3746;1.3145;-1.8124;-0.6961;0.1695;0.1396;0.2019;45.0;-61.32;82.2;11.46;358.95;-47.3;-101.93;3.1;867.67;69.562;19.5198;-96.91567;;;420.96774;0 / 0;95.2;87.0;4.073;29935;2014-11-08 13:53:45:749
8.4276;4.9704;-1.9345;6.4915;7.1865;-1.5444;1.9361;-2.2161;-0.3901;0.1335;-0.0046;-0.0809;40.0;-62.46;83.52;11.28;357.67;-46.91;-103.89;3.1;867.66;71.72;19.5198;-96.91567;;;420.96774;0 / 0;95.2;87.0;4.073;39274;2014-11-08 13:53:46:278
8.4276;4.9704;-1.9345;6.4915;7.1865;-1.5444;1.9361;-2.2161;-0.3901;0.1335;-0.0046;-0.0809;40.0;-62.46;83.52;11.28;357.67;-46.91;-103.89;3.1;867.66;71.72;19.5198;-96.91567;;;420.96774;0 / 0;95.2;87.0;4.073;30467;2014-11-08 13:53:46:281
8.4467;4.7309;-1.7717;6.5716;7.1232;-1.4979;1.9805;-2.2295;-0.5324;-0.0538;-0.1155;0.1298;31.0;-62.34;82.86;10.8;358.3;-46.58;-102.84;3.1;867.74;71.533;19.5198;-96.91567;;;420.96774;0 / 0;95.2;87.0;4.073;39774;2014-11-08 13:53:46:778
8.4467;4.7309;-1.7717;6.5716;7.1232;-1.4979;1.9805;-2.2295;-0.5324;-0.0538;-0.1155;0.1298;31.0;-62.34;82.86;10.8;358.3;-46.58;-102.84;3.1;867.74;71.533;19.5198;-96.91567;;;420.96774;0 / 0;95.2;87.0;4.073;30967;2014-11-08 13:53:46:781
8.5425;4.6352;-1.7621;6.71;6.9948;-1.4895;1.775;-2.3788;-0.2918;-0.0125;0.0177;0.0391;32.0;-62.16;82.8;10.92;358.45;-45.68;-102.61;3.1;867.67;70.171;19.5198;-96.91567;;;420.96774;0 / 0;95.2;87.0;4.073;40312;2014-11-08 13:53:47:316
8.5425;4.6352;-1.7621;6.71;6.9948;-1.4895;1.775;-2.3788;-0.2918;-0.0125;0.0177;0.0391;32.0;-62.16;82.8;10.92;358.45;-45.68;-102.61;3.1;867.67;70.171;19.5198;-96.91567;;;420.96774;0 / 0;95.2;87.0;4.073;31509;2014-11-08 13:53:47:323
8.0254;4.1946;-1.494;6.6885;7.0309;-1.4148;1.6625;-2.2329;-0.4144;-0.0483;0.1973;0.0632;38.0;-62.58;83.22;11.4;356.94;-45.96;-104.88;3.1;867.7;70.761;19.5198;-96.91567;;;420.96774;0 / 0;95.2;87.0;4.073;40820;2014-11-08 13:53:47:824
8.0254;4.1946;-1.494;6.6885;7.0309;-1.4148;1.6625;-2.2329;-0.4144;-0.0483;0.1973;0.0632;38.0;-62.58;83.22;11.4;356.94;-45.96;-104.88;3.1;867.7;70.761;19.5198;-96.91567;;;420.96774;0 / 0;95.2;87.0;4.073;32013;2014-11-08 13:53:47:827
8.4755;4.8842;-4.6064;6.1524;7.0172;-3.0129;1.7293;-2.4969;-0.1187;0.8906;-0.4267;-0.208;80.0;-63.0;82.08;12.72;355.47;-45.9;-108.94;3.1;867.76;65.781;19.5198;-96.91567;;;420.96774;0 / 0;95.2;87.0;4.073;41360;2014-11-08 13:53:48:364
8.4755;4.8842;-4.6064;6.1524;7.0172;-3.0129;1.7293;-2.4969;-0.1187;0.8906;-0.4267;-0.208;80.0;-63.0;82.08;12.72;355.47;-45.9;-108.94;3.1;867.76;65.781;19.5198;-96.91567;;;420.96774;0 / 0;95.2;87.0;4.073;32554;2014-11-08 13:53:48:368
6.5697;4.4915;-1.9441;5.4179;7.6908;-2.7692;1.4678;-2.0021;-2.5651;-2.6597;-0.3952;1.1054;38.0;-62.4;76.92;16.98;346.47;-48.86;-126.35;3.1;867.57;64.268;19.5198;-96.91567;;;420.96774;0 / 0;95.2;87.0;4.073;41887;2014-11-08 13:53:48:891
6.5697;4.4915;-1.9441;5.4179;7.6908;-2.7692;1.4678;-2.0021;-2.5651;-2.6597;-0.3952;1.1054;38.0;-62.4;76.92;16.98;346.47;-48.86;-126.35;3.1;867.57;64.268;19.5198;-96.91567;;;420.96774;0 / 0;95.2;87.0;4.073;33082;2014-11-08 13:53:48:896
12.0476;0.2107;0.067;8.2896;5.2331;0.2612;5.3478;-1.9387;-0.8549;-0.8024;2.7776;0.241;30.0;-63.54;82.74;15.12;1.18;-39.65;-101.29;3.1;867.71;61.529;19.5198;-96.91567;;;420.96774;0 / 0;95.2;87.0;4.073;42428;2014-11-08 13:53:49:432
12.0476;0.2107;0.067;8.2896;5.2331;0.2612;5.3478;-1.9387;-0.8549;-0.8024;2.7776;0.241;30.0;-63.54;82.74;15.12;1.18;-39.65;-101.29;3.1;867.71;61.529;19.5198;-96.91567;;;420.96774;0 / 0;95.2;87.0;4.073;33624;2014-11-08 13:53:49:438
7.1922;3.1412;0.2203;8.9328;3.7558;1.5065;-1.6736;-0.8732;-1.4395;-0.803;-0.1735;-0.1943;414.0;-62.76;100.62;6.36;6.23;-21.82;-83.81;3.1;867.59;72.051;19.5198;-96.91567;;;420.96774;0 / 0;95.2;87.0;4.073;42955;2014-11-08 13:53:49:959
7.1922;3.1412;0.2203;8.9328;3.7558;1.5065;-1.6736;-0.8732;-1.4395;-0.803;-0.1735;-0.1943;414.0;-62.76;100.62;6.36;6.23;-21.82;-83.81;3.1;867.59;72.051;19.5198;-96.91567;;;420.96774;0 / 0;95.2;87.0;4.073;34149;2014-11-08 13:53:49:963
10.4962;-1.1205;3.7828;8.9881;3.3514;2.0376;-1.4991;-3.179;1.094;-0.7685;-0.7208;1.0699;811.0;-60.42;114.96;5.46;6.82;-27.25;-79.93;3.1;867.64;59.124;19.5198;-96.91567;;;420.96774;0 / 0;95.2;87.0;4.073;43493;2014-11-08 13:53:50:497
10.4962;-1.1205;3.7828;8.9881;3.3514;2.0376;-1.4991;-3.179;1.094;-0.7685;-0.7208;1.0699;811.0;-60.42;114.96;5.46;6.82;-27.25;-79.93;3.1;867.64;59.124;19.5198;-96.91567;;;420.96774;0 / 0;95.2;87.0;4.073;34688;2014-11-08 13:53:50:502
8.6191;-2.0877;6.1866;8.9017;2.8617;2.9565;-1.0104;-4.2791;0.3188;-2.0058;0.5098;-1.2627;1278.0;-58.02;125.64;8.88;11.82;-13.56;-70.14;3.1;867.69;59.102;19.5198;-96.91567;;;420.96774;0 / 0;95.2;87.0;4.073;44028;2014-11-08 13:53:51:032
8.6191;-2.0877;6.1866;8.9017;2.8617;2.9565;-1.0104;-4.2791;0.3188;-2.0058;0.5098;-1.2627;1278.0;-58.02;125.64;8.88;11.82;-13.56;-70.14;3.1;867.69;59.102;19.5198;-96.91567;;;420.96774;0 / 0;95.2;87.0;4.073;35222;2014-11-08 13:53:51:036
6.2537;2.557;4.2425;7.7014;3.3885;5.0375;-0.4805;-0.458;0.3063;2.2394;0.2908;1.2697;1648.0;-50.46;119.34;3.0;14.07;-19.41;-54.64;3.1;867.61;67.045;19.5198;-96.91567;;;420.96774;0 / 0;95.2;87.0;4.073;44561;2014-11-08 13:53:51:565
6.2537;2.557;4.2425;7.7014;3.3885;5.0375;-0.4805;-0.458;0.3063;2.2394;0.2908;1.2697;1648.0;-50.46;119.34;3.0;14.07;-19.41;-54.64;3.1;867.61;67.045;19.5198;-96.91567;;;420.96774;0 / 0;95.2;87.0;4.073;35755;2014-11-08 13:53:51:569
7.5465;3.3327;2.3846;6.8599;5.0089;4.9013;2.4104;-2.0209;-1.3675;0.5229;0.5122;-0.3888;1188.0;-43.68;93.96;-1.14;13.35;-28.0;-55.93;3.1;867.66;67.523;19.5198;-96.91567;;;420.96774;0 / 0;95.2;87.0;4.073;45089;2014-11-08 13:53:52:093
7.5465;3.3327;2.3846;6.8599;5.0089;4.9013;2.4104;-2.0209;-1.3675;0.5229;0.5122;-0.3888;1188.0;-43.68;93.96;-1.14;13.35;-28.0;-55.93;3.1;867.66;67.523;19.5198;-96.91567;;;420.96774;0 / 0;95.2;87.0;4.073;36284;2014-11-08 13:53:52:098
6.426;4.0989;4.7118;5.9431;5.5396;5.492;1.1724;-0.9427;-0.1673;0.3571;0.5171;0.3619;2230.0;-37.02;76.98;2.16;18.58;-36.39;-48.35;3.1;867.59;70.825;19.5198;-96.91567;;;420.96774;0 / 0;95.2;87.0;4.073;45619;2014-11-08 13:53:52:623
7.422;5.1619;6.7995;5.9431;5.5396;5.492;1.1724;-0.9427;-0.1673;0.3571;0.5171;0.3619;2230.0;-37.02;76.98;2.16;18.58;-36.39;-48.35;3.1;867.59;70.825;19.5198;-96.91567;;;420.96774;0 / 0;95.2;87.0;4.073;36813;2014-11-08 13:53:52:627
5.0757;4.3287;6.1004;5.0898;6.0705;5.7804;-0.4451;-1.9908;0.2147;-0.0925;0.5638;-0.1533;2927.0;-32.82;71.64;7.32;22.37;-37.79;-45.52;3.1;867.6;53.153;19.5198;-96.91567;;;420.96774;0 / 0;95.2;87.0;4.073;46129;2014-11-08 13:53:53:133
5.0853;4.2138;5.9855;5.0898;6.0705;5.7804;-0.4451;-1.9908;0.2147;-0.0925;0.5638;-0.1533;2927.0;-32.82;71.64;7.32;22.37;-37.79;-45.52;3.1;867.6;53.153;19.5198;-96.91567;;;420.96774;0 / 0;95.2;87.0;4.073;37350;2014-11-08 13:53:53:164
6.5218;4.8076;6.2249;4.5482;6.2119;6.0743;1.5235;-0.7339;-0.6347;0.0574;-0.5678;-0.2654;3155.0;-31.98;67.86;11.94;29.21;-39.3;-36.82;3.1;867.62;67.365;19.5198;-96.91567;;;420.96774;0 / 0;95.2;87.0;4.073;46631;2014-11-08 13:53:53:635
6.5218;4.8076;6.2249;4.625;6.0427;6.1859;2.3948;-3.0835;0.3934;-0.9435;-0.0867;-0.5544;3048.0;-31.98;67.86;11.94;29.21;-39.3;-36.82;3.1;867.62;67.365;19.5198;-96.91567;;;420.96774;0 / 0;95.2;87.0;4.073;37868;2014-11-08 13:53:53:682
5.8419;4.118;5.7652;5.7535;4.0894;6.8077;0.2225;-0.2204;-1.3872;-1.2932;-0.6457;-1.23;2605.0;-29.64;71.7;9.42;22.12;-24.65;-40.2;3.1;867.49;48.92;19.5198;-96.91567;;;420.96774;0 / 0;95.2;87.0;4.073;47136;2014-11-08 13:53:54:140
5.8419;4.118;5.7652;5.7535;4.0894;6.8077;0.2225;-0.2204;-1.3872;-1.2932;-0.6457;-1.23;2605.0;-29.64;71.7;9.42;22.12;-24.65;-40.2;3.1;867.49;48.92;19.5198;-96.91567;;;420.96774;0 / 0;95.2;87.0;4.073;38369;2014-11-08 13:53:54:183
6.3303;3.984;3.6009;5.4577;6.4523;4.9751;1.6483;-2.1523;0.273;1.6768;-0.1179;-0.3009;2284.0;-30.6;83.28;2.46;16.26;-41.14;-47.65;3.1;867.53;59.671;19.5198;-96.91567;;;420.96774;0 / 0;95.2;87.0;4.073;47644;2014-11-08 13:53:54:648
6.3303;3.984;3.6009;5.4577;6.4523;4.9751;1.6483;-2.1523;0.273;1.6768;-0.1179;-0.3009;871.0;-30.6;83.28;2.46;16.26;-41.14;-47.65;3.1;867.53;59.671;19.5198;-96.91567;;;420.96774;0 / 0;95.2;87.0;4.073;38875;2014-11-08 13:53:54:689
5.861;6.11;4.3287;4.2173;7.858;4.0789;0.4083;-1.7863;0.4892;-1.7581;-0.3192;-2.2126;1316.0;-34.98;86.88;0.84;13.62;-51.03;-59.12;3.1;867.56;72.5;19.5198;-96.91567;;;420.96774;0 / 0;95.2;87.0;4.073;48155;2014-11-08 13:53:55:159
3.8786;6.1387;4.7214;4.2173;7.858;4.0789;0.4083;-1.7863;0.4892;-1.7581;-0.3192;-2.2126;1316.0;-36.36;88.38;0.3;18.83;-53.25;-45.96;3.1;867.56;72.5;19.5198;-96.91567;;;420.96774;0 / 0;95.2;87.0;4.073;39394;2014-11-08 13:53:55:208
1.8771;8.7436;5.6216;5.2628;5.7527;5.9481;-2.9548;2.3397;-1.3034;0.4569;-0.1231;-0.1686;3523.0;-39.9;101.28;-1.92;16.25;-35.92;-41.5;3.1;867.58;57.291;19.5198;-96.91567;;;420.96774;0 / 0;95.2;87.0;4.073;49099;2014-11-08 13:53:56:103
1.8771;8.7436;5.6216;5.2628;5.7527;5.9481;-2.9548;2.3397;-1.3034;0.4569;-0.1231;-0.1686;3523.0;-39.9;101.28;-1.92;16.25;-35.92;-41.5;3.1;867.58;57.291;19.5198;-96.91567;;;420.96774;0 / 0;95.2;87.0;4.073;40292;2014-11-08 13:53:56:106
6.8091;5.4013;-1.5323;9.2574;2.4391;2.1264;-4.5326;2.9198;-1.6749;2.3592;-3.0336;3.0693;514.0;-43.5;99.6;-0.12;17.19;-31.58;-43.57;3.1;867.68;75.185;19.5198;-96.91567;;;420.96774;0 / 0;95.2;87.0;4.073;49667;2014-11-08 13:53:56:671
6.8091;5.4013;-1.5323;9.2574;2.4391;2.1264;-4.5326;2.9198;-1.6749;2.3592;-3.0336;3.0693;514.0;-43.5;99.6;-0.12;17.19;-31.58;-43.57;3.1;867.68;75.185;19.5198;-96.91567;;;420.96774;0 / 0;95.2;87.0;4.073;40861;2014-11-08 13:53:56:675
3.5243;4.5011;7.2305;5.1104;5.4409;6.3601;-1.5861;-0.9398;0.8704;-0.7065;1.0962;0.9068;411.0;-57.36;101.28;10.44;357.15;-17.92;-105.57;3.1;867.7;66.921;19.5198;-96.91567;;;420.96774;0 / 0;95.2;87.0;4.073;50782;2014-11-08 13:53:57:786
3.5243;4.5011;7.2305;5.1104;5.4409;6.3601;-1.5861;-0.9398;0.8704;-0.7065;1.0962;0.9068;411.0;-57.36;101.28;10.44;357.15;-17.92;-105.57;3.1;867.7;66.921;19.5198;-96.91567;;;420.96774;0 / 0;95.2;87.0;4.073;41974;2014-11-08 13:53:57:788
2.8826;0.431;7.9966;2.771;3.3511;8.7899;0.1116;-2.9202;-0.7932;-0.9248;-0.3806;1.2953;4173.0;-36.12;106.8;2.7;18.68;-25.93;-23.39;3.1;867.58;56.77;19.5198;-96.91567;;;420.96774;0 / 0;95.2;87.0;4.073;51284;2014-11-08 13:53:58:288
2.8826;0.431;7.9966;2.771;3.3511;8.7899;0.1116;-2.9202;-0.7932;-0.9248;-0.3806;1.2953;4173.0;-36.12;106.8;2.7;18.68;-25.93;-23.39;3.1;867.58;56.77;19.5198;-96.91567;;;420.96774;0 / 0;95.2;87.0;4.073;42477;2014-11-08 13:53:58:291
3.0167;-1.3695;9.8737;2.8104;4.0286;8.4878;0.2063;-5.3981;1.3859;2.1945;-0.2111;-0.1469;2727.0;-20.76;111.06;1.5;11.28;-24.26;-18.32;3.1;867.61;60.83;19.5198;-96.91567;;;420.96774;0 / 0;95.2;87.0;4.073;51792;2014-11-08 13:53:58:796
3.0167;-1.3695;9.8737;2.8104;4.0286;8.4878;0.2063;-5.3981;1.3859;2.1945;-0.2111;-0.1469;2727.0;-20.76;111.06;1.5;11.28;-24.26;-18.32;3.1;867.61;60.83;19.5198;-96.91567;;;420.96774;0 / 0;95.2;87.0;4.073;42987;2014-11-08 13:53:58:801
4.8842;2.6815;6.675;4.3739;4.8263;7.3312;0.5102;-2.1448;-0.6561;-0.1674;0.4172;0.0525;1600.0;-23.34;108.72;0.72;11.0;-26.48;-32.42;3.1;867.73;73.718;19.5198;-96.91567;;;420.96774;0 / 0;95.2;87.0;4.073;52305;2014-11-08 13:53:59:309
4.8842;2.6815;6.675;4.3739;4.8263;7.3312;0.5102;-2.1448;-0.6561;-0.1674;0.4172;0.0525;1600.0;-23.34;108.72;0.72;11.0;-26.48;-32.42;3.1;867.73;73.718;19.5198;-96.91567;;;420.96774;0 / 0;95.2;87.0;4.073;43499;2014-11-08 13:53:59:313
2.4229;1.0822;6.0047;3.7962;5.2799;7.3404;-2.3406;-3.7476;-1.8242;1.1692;1.7043;0.7523;2796.0;-25.32;103.08;-0.48;13.39;-30.58;-26.14;3.1;867.67;75.006;19.520012;-96.91571;;;130.64516;0 / 0;95.2;87.0;4.073;52810;2014-11-08 13:53:59:814
2.4229;1.0822;6.0047;3.7962;5.2799;7.3404;-2.3406;-3.7476;-1.8242;1.1692;1.7043;0.7523;2796.0;-25.32;103.08;-0.48;13.39;-30.58;-26.14;3.1;867.67;75.006;19.520012;-96.91571;;;130.64516;0 / 0;95.2;87.0;4.073;44003;2014-11-08 13:53:59:817
6.6846;3.8499;7.7668;1.6485;5.3661;8.041;3.4751;-1.9089;-0.7051;-0.0632;-0.3858;0.1026;1793.0;-21.6;92.7;2.94;15.55;-33.29;-14.65;3.1;867.64;53.188;19.520012;-96.91571;;;130.64516;0 / 0;95.2;87.0;4.073;53340;2014-11-08 13:54:00:344
6.6846;3.8499;7.7668;1.6485;5.3661;8.041;3.4751;-1.9089;-0.7051;-0.0632;-0.3858;0.1026;1793.0;-21.6;92.7;2.94;15.55;-33.29;-14.65;3.1;867.64;53.188;19.520012;-96.91571;;;130.64516;0 / 0;95.2;87.0;4.073;44541;2014-11-08 13:54:00:355
5.9568;-0.5363;11.8944;-0.8768;2.6443;9.4026;8.883;0.2288;1.9267;-2.7034;0.4239;-2.0305;6092.0;-19.38;90.48;6.6;12.23;-15.64;5.33;3.1;867.63;74.795;19.520012;-96.91571;;;130.64516;0 / 0;95.2;87.0;4.073;53840;2014-11-08 13:54:00:844
-1.5802;-2.308;7.853;0.022;3.3819;9.205;-0.338;-6.2549;0.3909;-2.7034;0.4239;-2.0305;6092.0;-19.38;90.48;6.6;12.23;-15.64;5.33;3.1;867.6;74.795;19.520012;-96.91571;;;130.64516;0 / 0;95.2;87.0;4.073;45047;2014-11-08 13:54:00:861
5.4684;8.3989;-0.1724;2.4913;7.9344;5.197;-0.2695;-2.7438;-2.822;5.5619;1.1335;-0.1002;274.0;-19.32;92.88;10.92;22.34;-54.01;-25.61;3.1;867.62;73.353;19.520012;-96.91571;;;130.64516;0 / 0;95.2;87.0;4.073;54352;2014-11-08 13:54:01:356
5.4684;8.3989;-0.1724;2.4913;7.9344;5.197;-0.2695;-2.7438;-2.822;5.5619;1.1335;-0.1002;274.0;-19.32;92.88;10.92;22.34;-54.01;-25.61;3.1;867.62;73.353;19.520012;-96.91571;;;130.64516;0 / 0;95.2;87.0;4.073;45553;2014-11-08 13:54:01:367
10.4387;3.0646;-4.4819;1.9514;9.6032;-0.3752;8.9279;-4.0487;-1.1188;1.2358;1.164;-1.0253;573.0;-35.76;75.36;42.66;31.52;-78.31;-100.88;3.1;867.69;70.621;19.520012;-96.91571;;;130.64516;0 / 0;95.2;87.0;4.073;55320;2014-11-08 13:54:02:324
10.4387;3.0646;-4.4819;1.9514;9.6032;-0.3752;8.9279;-4.0487;-1.1188;1.2358;1.164;-1.0253;573.0;-35.76;75.36;42.66;31.52;-78.31;-100.88;3.1;867.69;70.621;19.520012;-96.91571;;;130.64516;0 / 0;95.2;87.0;4.073;46522;2014-11-08 13:54:02:336
2.806;2.9209;6.8091;-2.1085;2.3765;9.2778;4.9145;0.5444;-2.4687;-1.091;1.4297;0.099;49.0;-48.0;76.5;41.76;53.39;-39.06;-16.66;3.1;867.65;70.621;19.520012;-96.91571;;;130.64516;0 / 0;95.2;87.0;4.073;56118;2014-11-08 13:54:03:122
2.806;2.9209;6.8091;-2.1085;2.3765;9.2778;4.9145;0.5444;-2.4687;-1.091;1.4297;0.099;49.0;-48.0;76.5;41.76;53.39;-39.06;-16.66;3.1;867.65;70.621;19.520012;-96.91571;;;130.64516;0 / 0;95.2;87.0;4.073;47311;2014-11-08 13:54:03:125
-0.498;3.0071;8.4659;-2.8463;3.0616;8.8711;2.5877;-1.06;-2.1673;-0.1399;-0.8879;-0.3506;37.0;-27.42;73.26;14.04;18.9;-18.19;17.79;3.1;867.62;47.061;19.520012;-96.91571;;;130.64516;0 / 0;95.2;87.0;4.073;56640;2014-11-08 13:54:03:644
-0.498;3.0071;8.4659;-2.8463;3.0616;8.8711;2.5877;-1.06;-2.1673;-0.1399;-0.8879;-0.3506;37.0;-27.42;73.26;14.04;18.9;-18.19;17.79;3.1;867.62;47.061;19.520012;-96.91571;;;130.64516;0 / 0;95.2;87.0;4.073;47833;2014-11-08 13:54:03:647
1.3216;2.1452;5.6695;0.5537;3.7541;9.0427;1.3329;-1.8292;-2.0325;0.4328;-0.3131;-1.2877;42.0;-16.8;74.76;12.12;15.21;-22.51;-3.5;3.1;867.6;44.974;19.520012;-96.91571;;;130.64516;0 / 0;95.2;87.0;4.073;57183;2014-11-08 13:54:04:187
1.3216;2.1452;5.6695;0.5537;3.7541;9.0427;1.3329;-1.8292;-2.0325;0.4328;-0.3131;-1.2877;42.0;-16.8;74.76;12.12;15.21;-22.51;-3.5;3.1;867.6;44.974;19.520012;-96.91571;;;130.64516;0 / 0;95.2;87.0;4.073;48406;2014-11-08 13:54:04:220
0.0479;3.8978;6.1483;1.9451;5.7464;7.7049;-1.8972;-1.8486;-1.5566;1.0617;-0.6591;-0.1139;52.0;-10.62;82.62;8.4;10.71;-33.23;-13.87;3.1;867.67;48.545;19.520012;-96.91571;;;130.64516;0 / 0;95.2;87.0;4.073;57747;2014-11-08 13:54:04:751
0.0479;3.8978;6.1483;1.9451;5.7464;7.7049;-1.8972;-1.8486;-1.5566;1.0617;-0.6591;-0.1139;52.0;-10.62;82.62;8.4;10.71;-33.23;-13.87;3.1;867.67;48.545;19.520012;-96.91571;;;130.64516;0 / 0;95.2;87.0;4.073;48941;2014-11-08 13:54:04:755
3.9744;4.8267;10.8409;3.2406;4.8782;7.8659;-0.109;-2.1776;-2.8476;-0.6753;-0.2911;-0.9032;57.0;-10.98;84.96;7.98;10.64;-36.51;-9.3;3.1;867.63;43.562;19.520012;-96.91571;;;130.64516;0 / 0;95.2;87.0;4.073;58253;2014-11-08 13:54:05:257
3.9744;4.8267;10.8409;3.2406;4.8782;7.8659;-0.109;-2.1776;-2.8476;-0.6753;-0.2911;-0.9032;57.0;-10.98;84.96;7.98;10.64;-36.51;-9.3;3.1;867.63;43.562;19.520012;-96.91571;;;130.64516;0 / 0;95.2;87.0;4.073;49460;2014-11-08 13:54:05:274
2.308;1.494;11.1187;2.8277;4.1094;8.4432;-1.8221;1.0046;4.4664;-0.3543;0.1805;0.7917;30.0;-16.32;92.52;8.76;12.26;-24.77;-18.52;3.1;867.7;52.641;19.520012;-96.91571;;;130.64516;0 / 0;95.2;87.0;4.073;58769;2014-11-08 13:54:05:773
2.308;1.494;11.1187;2.8277;4.1094;8.4432;-1.8221;1.0046;4.4664;-0.3543;0.1805;0.7917;30.0;-16.32;92.52;8.76;12.26;-24.77;-18.52;3.1;867.7;49.991;19.520012;-96.91571;;;130.64516;0 / 0;95.2;87.0;4.073;49963;2014-11-08 13:54:05:777
4.7118;-0.5938;9.2608;3.4445;3.1475;8.6255;1.8802;-3.2816;2.6368;-1.42;0.2676;-0.6292;19.0;-14.82;94.8;11.22;11.91;-22.54;-24.19;3.1;867.61;48.717;19.520012;-96.91571;;;130.64516;0 / 0;95.2;87.0;4.073;59312;2014-11-08 13:54:06:316
4.7118;-0.5938;9.2608;3.4445;3.1475;8.6255;1.8802;-3.2816;2.6368;-1.42;0.2676;-0.6292;19.0;-14.82;94.8;11.22;11.91;-22.54;-24.19;3.1;867.61;48.717;19.520012;-96.91571;;;130.64516;0 / 0;95.2;87.0;4.073;50507;2014-11-08 13:54:06:321
3.1412;3.9552;7.5465;3.7178;4.2756;8.0042;-0.5766;-0.3204;-0.4577;-0.1891;0.336;-0.1778;13.0;-12.96;93.48;11.34;10.91;-21.27;-24.3;3.1;867.67;48.001;19.520012;-96.91571;;;130.64516;0 / 0;95.2;87.0;4.073;59812;2014-11-08 13:54:06:816
2.4325;4.7884;11.3006;3.7178;4.2756;8.0042;-0.5766;-0.3204;-0.4577;-0.1891;0.336;-0.1778;13.0;-12.96;93.48;11.34;10.91;-21.27;-24.3;3.1;867.67;48.001;19.520012;-96.91571;;;130.64516;0 / 0;95.2;87.0;4.073;51008;2014-11-08 13:54:06:822
3.6775;3.8499;6.1962;3.5385;5.5306;7.2844;0.139;-1.6807;-1.0882;0.4673;-0.4316;-0.3106;11.0;-15.48;91.98;6.06;11.88;-34.33;-25.91;3.1;867.6;49.93;19.520012;-96.91571;;;130.64516;0 / 0;95.2;87.0;4.073;60312;2014-11-08 13:54:07:316
3.6775;3.8499;6.1962;3.5385;5.5306;7.2844;0.139;-1.6807;-1.0882;0.4673;-0.4316;-0.3106;11.0;-15.48;91.98;6.06;11.88;-34.33;-25.91;3.1;867.6;49.93;19.520012;-96.91571;;;130.64516;0 / 0;95.2;87.0;4.073;51508;2014-11-08 13:54:07:322
4.2425;3.237;5.296;5.0992;4.1089;7.2997;-0.8567;-0.8719;-2.0037;-0.4004;-0.2028;-0.193;29.0;-20.82;87.6;1.68;12.29;-24.77;-34.94;3.1;867.67;43.265;19.520012;-96.91571;;;130.64516;0 / 0;95.2;87.0;4.073;60824;2014-11-08 13:54:07:828
4.2425;3.237;5.296;5.0992;4.1089;7.2997;-0.8567;-0.8719;-2.0037;-0.4004;-0.2028;-0.193;29.0;-20.82;87.6;1.68;12.29;-24.77;-34.94;3.1;867.67;43.265;19.520012;-96.91571;;;130.64516;0 / 0;95.2;87.0;4.073;52022;2014-11-08 13:54:07:836
5.6024;2.2314;8.0924;4.0726;5.0582;7.3484;1.5298;-2.8268;0.744;-0.77;-0.095;-0.0651;38.0;-24.48;86.46;-0.42;15.02;-34.88;-30.06;3.1;867.66;47.455;19.520012;-96.91571;;;130.64516;0 / 0;95.2;87.0;4.073;61347;2014-11-08 13:54:08:351
5.6024;2.2314;8.0924;4.0726;5.0582;7.3484;1.5298;-2.8268;0.744;-0.77;-0.095;-0.0651;38.0;-24.48;86.46;-0.42;15.02;-34.88;-30.06;3.1;867.66;47.455;19.520012;-96.91571;;;130.64516;0 / 0;95.2;87.0;4.073;52541;2014-11-08 13:54:08:355
-0.431;6.3398;6.426;3.4458;5.4868;7.3615;-3.8767;0.853;-0.9355;2.2816;-0.3815;0.9181;43.0;-23.04;88.98;-0.18;14.35;-23.76;-19.8;3.1;867.72;49.331;19.520012;-96.91571;;;130.64516;0 / 0;95.2;87.0;4.073;61871;2014-11-08 13:54:08:875
-0.431;6.3398;6.426;3.4458;5.4868;7.3615;-3.8767;0.853;-0.9355;2.2816;-0.3815;0.9181;43.0;-23.04;88.98;-0.18;14.35;-23.76;-19.8;3.1;867.72;49.331;19.520012;-96.91571;;;130.64516;0 / 0;95.2;87.0;4.073;53065;2014-11-08 13:54:08:879
4.1563;5.2385;4.7022;1.5839;7.4112;6.2238;2.3043;-2.6515;0.5757;-0.3983;-0.7489;0.4954;39.0;-19.26;82.98;8.04;18.23;-44.34;-14.89;0.0;867.72;50.971;19.520012;-96.91571;;;130.64516;0 / 0;95.2;87.0;4.073;62445;2014-11-08 13:54:09:449
4.1563;5.2385;4.7022;1.5839;7.4112;6.2238;2.3043;-2.6515;0.5757;-0.3983;-0.7489;0.4954;39.0;-19.26;82.98;8.04;18.23;-44.34;-14.89;0.0;867.72;50.971;19.520012;-96.91571;;;130.64516;0 / 0;95.2;87.0;4.073;53638;2014-11-08 13:54:09:452
2.0782;4.6639;5.7844;2.1484;6.5875;6.9398;-0.0702;-1.9236;-1.1554;-0.6353;-0.6842;-1.055;25.0;-18.78;76.02;15.3;23.26;-44.23;-15.74;0.0;867.73;51.099;19.520012;-96.91571;;;130.64516;0 / 0;95.2;87.0;4.073;62950;2014-11-08 13:54:09:954
2.0782;4.6639;5.7844;2.1484;6.5875;6.9398;-0.0702;-1.9236;-1.1554;-0.6353;-0.6842;-1.055;25.0;-18.78;76.02;15.3;23.26;-44.23;-15.74;0.0;867.73;51.099;19.520012;-96.91571;;;130.64516;0 / 0;95.2;87.0;4.073;54145;2014-11-08 13:54:09:959
0.6416;4.4724;2.0782;2.1124;5.7341;7.67;-2.5051;-1.0319;-3.2455;1.54;0.4078;0.1142;33.0;-17.34;73.86;18.78;18.99;-27.93;-9.66;0.0;867.7;48.572;19.520012;-96.91571;;;130.64516;0 / 0;95.2;87.0;4.073;63472;2014-11-08 13:54:10:476
0.6416;4.4724;2.0782;2.1124;5.7341;7.67;-2.5051;-1.0319;-3.2455;1.54;0.4078;0.1142;33.0;-17.34;73.86;18.78;18.99;-27.93;-9.66;0.0;867.7;50.778;19.520012;-96.91571;;;130.64516;0 / 0;95.2;87.0;4.073;54665;2014-11-08 13:54:10:479
-0.1724;2.7007;-3.7445;5.076;8.2534;-1.5122;-4.3386;-4.9015;-0.6234;5.3768;-3.1319;-0.8451;10.0;-20.52;70.98;26.82;33.36;-56.49;-71.95;0.0;867.64;52.021;19.520012;-96.91571;;;130.64516;0 / 0;95.2;87.0;4.073;63977;2014-11-08 13:54:10:981
-0.1724;2.7007;-3.7445;5.076;8.2534;-1.5122;-4.3386;-4.9015;-0.6234;5.3768;-3.1319;-0.8451;10.0;-20.52;70.98;26.82;33.36;-56.49;-71.95;0.0;867.64;52.021;19.520012;-96.91571;;;130.64516;0 / 0;95.2;87.0;4.073;55170;2014-11-08 13:54:10:984
6.4739;0.68;-2.5474;5.2964;5.1235;-6.4705;1.6851;-5.3055;2.4387;-1.825;1.6878;1.1399;15.0;-26.7;69.18;48.66;6.61;-31.5;-140.7;0.0;867.66;47.68;19.520012;-96.91571;;;130.64516;0 / 0;95.2;87.0;4.073;64524;2014-11-08 13:54:11:528
6.1004;4.1851;-0.9098;7.2885;4.5304;-4.7458;-1.1881;-0.3453;3.836;-2.6716;2.3964;1.1234;16.0;-28.5;68.76;49.08;6.08;-31.5;-140.7;0.0;867.71;47.68;19.520012;-96.91571;;;130.64516;0 / 0;95.2;87.0;4.073;55979;2014-11-08 13:54:11:793
3.0454;0.565;9.5672;5.2321;3.1594;7.6691;-2.1866;-2.5943;1.8982;0.022;1.1777;1.7819;15.0;-35.82;73.68;30.24;36.22;-27.77;-57.91;0.0;867.72;55.113;19.520012;-96.91571;;;130.64516;0 / 0;95.2;87.0;4.073;65132;2014-11-08 13:54:12:136
2.0686;1.3408;8.4372;3.5097;2.8215;8.7116;-1.4412;-1.4807;-0.2744;0.3241;0.3961;0.1985;10.0;-37.8;74.28;23.16;32.05;-18.79;-34.3;0.0;867.72;55.113;19.520012;-96.91571;;;130.64516;0 / 0;95.2;87.0;4.073;56497;2014-11-08 13:54:12:311
2.2889;1.0534;9.5002;2.202;3.9815;8.6873;0.0869;-2.928;0.8129;0.3516;0.7721;1.2908;10.0;-37.08;76.62;6.96;27.5;-22.04;-14.13;0.0;867.75;52.549;19.520012;-96.91571;;;130.64516;0 / 0;95.2;87.0;4.073;65633;2014-11-08 13:54:12:637
3.2274;1.3886;7.1251;1.4754;4.2763;8.701;1.752;-2.8876;-1.5758;1.2226;0.8674;1.0415;14.0;-34.62;76.86;3.48;26.39;-25.85;-9.62;0.0;867.73;52.185;19.520012;-96.91571;;;130.64516;0 / 0;95.2;87.0;4.073;56997;2014-11-08 13:54:12:811
0.8332;3.2944;5.5162;2.183;5.2991;7.9577;-1.3498;-2.0047;-2.4414;0.7957;0.288;0.6686;1.0;-35.76;72.84;6.9;26.31;-25.85;-9.62;0.0;867.65;50.544;19.520012;-96.91571;;;130.64516;0 / 0;95.2;87.0;4.073;66143;2014-11-08 13:54:13:147
4.0797;2.7102;11.0229;2.6459;5.8652;7.4006;1.4338;-3.155;3.6223;0.784;-1.3827;1.5708;1.0;-38.16;70.68;9.42;32.83;-32.71;-15.34;0.0;867.65;50.544;19.520012;-96.91571;;;130.64516;0 / 0;95.2;87.0;4.073;57497;2014-11-08 13:54:13:311
4.9129;5.0374;2.873;5.2806;5.3671;6.2833;-0.3677;-0.3297;-3.4102;0.8839;-1.4328;-0.0418;12.0;-48.78;67.8;20.28;39.73;-32.54;-32.85;0.0;867.74;55.279;19.520012;-96.91571;;;130.64516;0 / 0;95.2;87.0;4.073;66643;2014-11-08 13:54:13:647
3.5626;5.6599;4.7597;4.7325;4.6932;7.1936;-1.1699;0.9667;-2.434;-1.868;0.8705;-1.3381;19.0;-52.2;67.32;23.52;40.66;-33.18;-40.04;0.0;867.75;49.857;19.520012;-96.91571;;;130.64516;0 / 0;95.2;87.0;4.073;57997;2014-11-08 13:54:13:811
2.8443;2.6432;0.8045;4.7699;5.848;6.2625;-1.9256;-3.2048;-5.458;0.934;0.2905;-0.121;21.0;-59.7;68.34;29.16;47.77;-33.77;-31.48;0.0;867.61;50.599;19.520012;-96.91571;;;130.64516;0 / 0;95.2;87.0;4.073;67166;2014-11-08 13:54:14:170
11.1378;2.7198;12.536;6.0058;6.1802;4.6804;5.1321;-3.4604;7.8556;-1.533;-3.2776;0.7376;21.0;-61.74;69.24;30.72;47.19;-36.61;-37.3;0.0;867.65;50.599;19.520012;-96.91571;;;130.64516;0 / 0;95.2;87.0;4.073;58511;2014-11-08 13:54:14:325
12.5552;5.9376;11.8944;4.2787;5.8128;6.6389;8.2765;0.1249;5.2555;-0.9508;-1.908;-0.3772;33.0;-62.76;70.44;29.7;47.37;-31.17;-31.75;0.0;867.68;51.74;19.520012;-96.91571;;;130.64516;0 / 0;95.2;87.0;4.073;67718;2014-11-08 13:54:14:722
6.4548;1.7142;5.0087;4.912;5.0322;6.8352;6.427;-0.6556;3.4024;-1.0018;-0.4304;-0.3131;43.0;-62.76;70.44;29.7;47.37;-31.17;-31.75;0.0;867.78;52.546;19.520012;-96.91571;;;130.64516;0 / 0;95.2;87.0;4.073;59011;2014-11-08 13:54:14:825
14.2216;4.0223;9.5385;6.3215;5.3269;5.2757;1.3399;-3.3541;-0.2287;-1.7846;-3.3555;0.4264;54.0;-62.4;71.46;29.94;39.91;-32.9;-50.15;0.0;867.68;53.433;19.520012;-96.91571;;;130.64516;0 / 0;95.2;87.0;4.073;68234;2014-11-08 13:54:15:238
5.2768;4.0893;4.4724;5.4123;4.5172;6.8171;6.2043;0.367;-0.1037;-2.047;1.4908;-0.4951;44.0;-61.62;71.52;29.16;43.08;-27.43;-38.45;0.0;867.68;53.433;19.520012;-96.91571;;;130.64516;0 / 0;95.2;87.0;4.073;59530;2014-11-08 13:54:15:344
3.9648;3.2848;2.5379;4.8788;4.5574;7.1832;1.8441;-1.9429;-3.4482;0.7709;0.9685;0.2721;28.0;-57.96;71.58;27.78;43.08;-27.69;-34.18;0.0;867.71;50.86;19.520012;-96.91571;;;130.64516;0 / 0;95.2;87.0;4.073;68764;2014-11-08 13:54:15:768
3.9648;3.2848;2.5379;4.8788;4.5574;7.1832;1.8441;-1.9429;-3.4482;0.7709;0.9685;0.2721;28.0;-57.96;71.58;27.78;43.08;-27.69;-34.18;0.0;867.71;50.86;19.520012;-96.91571;;;130.64516;0 / 0;95.2;87.0;4.073;60030;2014-11-08 13:54:15:844
5.2002;4.2425;6.4835;4.5482;4.6711;7.3256;0.2785;-1.7884;-1.7328;-0.1545;-0.5391;-0.8668;22.0;-54.36;72.96;30.42;43.24;-28.45;-31.83;0.0;867.67;52.21;19.520012;-96.91571;;;130.64516;0 / 0;95.2;87.0;4.073;69281;2014-11-08 13:54:16:285
5.2002;4.2425;6.4835;4.5482;4.6711;7.3256;0.2785;-1.7884;-1.7328;-0.1545;-0.5391;-0.8668;19.0;-54.36;72.96;30.42;43.24;-28.45;-31.83;0.0;867.67;54.806;19.520012;-96.91571;;;130.64516;0 / 0;95.2;87.0;4.073;60539;2014-11-08 13:54:16:353
9.3565;2.1644;8.5617;5.4975;5.9559;5.5204;0.4497;-4.0885;-0.4064;1.2889;0.39;0.1112;20.0;-50.94;70.44;34.56;44.27;-37.4;-44.88;0.0;867.79;50.208;19.520012;-96.91571;;;130.64516;0 / 0;95.2;87.0;4.073;69785;2014-11-08 13:54:16:789
9.3565;2.1644;8.5617;5.4975;5.9559;5.5204;0.4497;-4.0885;-0.4064;-1.2367;-0.2477;0.2217;20.0;-50.94;70.44;34.56;44.27;-37.4;-44.88;0.0;867.79;50.208;19.520012;-96.91571;;;130.64516;0 / 0;95.2;87.0;4.073;61048;2014-11-08 13:54:16:862
10.9654;4.3766;5.8897;5.2838;4.8941;6.6559;6.2276;0.0955;0.8236;0.2309;0.3784;-0.471;13.0;-49.32;68.4;34.02;44.37;-29.94;-38.44;0.0;867.82;52.345;19.520012;-96.91571;;;130.64516;0 / 0;95.2;87.0;4.073;70288;2014-11-08 13:54:17:292
3.735;2.4038;1.7047;5.7754;5.1445;6.0291;0.8039;-1.8596;-2.8017;0.2309;0.3784;-0.471;17.0;-49.32;68.4;34.02;44.37;-29.94;-38.44;0.0;867.82;52.345;19.520012;-96.91571;;;130.64516;0 / 0;95.2;87.0;4.073;61556;2014-11-08 13:54:17:370
5.9089;4.1946;2.8252;6.2944;5.6372;4.9772;1.0701;-1.4904;-1.2422;-0.0171;1.2639;0.5883;18.0;-49.38;68.94;32.76;40.12;-35.09;-51.67;0.0;867.84;55.452;19.520012;-96.91571;;;130.64516;0 / 0;95.2;87.0;4.073;70804;2014-11-08 13:54:17:808
10.8505;4.5298;7.0294;6.8445;5.2617;4.6517;-0.2365;1.1261;0.5294;-0.0171;1.2639;0.5883;18.0;-49.02;69.48;32.28;37.53;-32.45;-55.8;0.0;867.84;55.452;19.520012;-96.91571;;;130.64516;0 / 0;95.2;87.0;4.073;62079;2014-11-08 13:54:17:893
9.596;0.8811;7.5274;7.1244;5.6663;3.6477;-0.0855;-4.1149;2.3952;1.4539;2.0666;1.127;15.0;-51.12;71.16;33.24;34.88;-35.3;-62.89;0.0;867.86;53.86;19.520012;-96.91571;;;130.64516;0 / 0;95.2;87.0;4.073;71304;2014-11-08 13:54:18:308
6.9911;4.1946;3.6392;6.1566;5.3083;5.4853;4.7514;-2.3395;0.2321;0.4407;-0.3305;0.1631;21.0;-52.02;71.64;33.78;40.87;-32.77;-48.3;0.0;867.88;53.86;19.520012;-96.91571;;;130.64516;0 / 0;95.2;87.0;4.073;62596;2014-11-08 13:54:18:410
3.3519;-1.0822;-0.4022;6.1172;6.1769;4.5382;-1.3097;-6.3972;-3.7051;3.6227;0.1524;0.0049;35.0;-55.68;73.38;36.06;41.05;-39.04;-53.43;0.0;867.9;58.377;19.520012;-96.91571;;;130.64516;0 / 0;95.2;87.0;4.073;71820;2014-11-08 13:54:18:824
3.3519;-1.0822;-0.4022;6.1172;6.1769;4.5382;-1.3097;-6.3972;-3.7051;2.2345;2.0611;1.3925;35.0;-55.68;73.38;36.06;41.05;-39.04;-53.43;0.0;867.9;52.856;19.520012;-96.91571;;;130.64516;0 / 0;95.2;87.0;4.073;63096;2014-11-08 13:54:18:910
10.0652;5.8897;6.8953;6.466;6.4635;3.5475;8.3015;-5.7165;2.687;1.266;-1.2123;0.5574;31.0;-59.52;78.3;42.48;34.46;-30.87;-69.31;0.0;867.84;56.922;19.51948;-96.915344;;;169.35483;0 / 0;95.2;87.0;4.073;72322;2014-11-08 13:54:19:326
11.4251;-0.1628;4.0989;6.466;6.4635;3.5475;8.3015;-5.7165;2.687;2.1093;1.2324;0.4685;45.0;-60.18;81.12;45.06;40.03;-41.23;-61.25;0.0;867.84;56.922;19.51948;-96.915344;;;169.35483;0 / 0;95.2;87.0;4.073;63596;2014-11-08 13:54:19:410
11.1378;3.6775;8.2265;6.6605;5.5447;4.5896;1.2611;-1.9303;1.6167;1.3338;1.0757;-0.1008;70.0;-64.14;94.08;50.88;38.1;-31.99;-61.13;0.0;867.96;50.76;19.51948;-96.915344;;;169.35483;0 / 0;95.2;87.0;4.073;72823;2014-11-08 13:54:19:827
8.7149;1.6664;8.1211;6.6605;5.5447;4.5896;3.8079;-3.3511;3.7066;1.3338;1.0757;-0.1008;70.0;-65.22;98.52;49.8;39.15;-34.43;-55.43;0.0;867.96;50.76;19.51948;-96.915344;;;169.35483;0 / 0;95.2;87.0;4.073;64096;2014-11-08 13:54:19:910
6.3111;3.1508;9.2225;3.3312;4.5093;8.0461;1.9589;-1.2855;0.0121;-0.4707;1.2556;-0.0098;44.0;-65.22;112.86;37.26;37.69;-27.38;-22.49;0.0;867.94;51.554;19.51948;-96.915344;;;169.35483;0 / 0;95.2;87.0;4.073;73327;2014-11-08 13:54:20:331
3.8595;2.9113;8.5808;3.3312;4.5093;8.0461;1.3438;-1.5184;0.4015;-0.4707;1.2556;-0.0098;42.0;-65.22;112.86;37.26;37.69;-27.38;-22.49;0.0;867.94;54.822;19.51948;-96.915344;;;169.35483;0 / 0;95.2;87.0;4.073;64599;2014-11-08 13:54:20:413
3.6775;3.1603;6.3398;2.6756;4.6663;8.1998;-0.0879;-2.09;-3.0238;0.7346;0.0443;0.5571;39.0;-61.5;118.02;23.58;32.7;-28.41;-18.07;0.0;867.95;49.803;19.51948;-96.915344;;;169.35483;0 / 0;95.2;87.0;4.073;73838;2014-11-08 13:54:20:842
3.6775;3.1603;6.3398;2.7503;5.0236;7.9605;-0.0879;-2.09;-3.0238;0.2666;-0.0162;0.7517;39.0;-59.88;118.74;19.86;31.66;-30.81;-19.06;0.0;867.85;49.803;19.51948;-96.915344;;;169.35483;0 / 0;95.2;87.0;4.073;65099;2014-11-08 13:54:20:913
3.6966;2.873;4.1468;3.6251;6.2411;6.6391;1.0524;-3.7593;-0.2802;1.733;0.7859;0.8668;40.0;-55.68;117.78;13.5;29.12;-39.52;-28.64;0.0;867.99;50.409;19.51948;-96.915344;;;169.35483;0 / 0;95.2;87.0;4.073;74355;2014-11-08 13:54:21:359
3.6966;2.873;4.1468;3.8609;6.7204;6.0083;1.0524;-3.7593;-0.2802;1.5269;-0.3005;0.5281;40.0;-54.24;115.98;11.58;28.02;-43.26;-32.72;0.0;867.99;50.409;19.51948;-96.915344;;;169.35483;0 / 0;95.2;87.0;4.073;65615;2014-11-08 13:54:21:429
8.0062;3.3423;5.8514;3.8303;6.5092;6.2554;4.4035;-2.921;-1.414;-0.1646;-0.5544;0.0541;40.0;-51.0;112.14;7.68;26.19;-41.59;-31.48;0.0;867.77;46.665;19.51948;-96.915344;;;169.35483;0 / 0;95.2;87.0;4.073;74855;2014-11-08 13:54:21:859
6.0142;3.0263;3.0742;4.161;5.9484;6.5935;4.4035;-2.921;-1.414;-0.3412;-0.0373;-0.7761;38.0;-50.34;111.18;6.6;24.53;-37.34;-32.25;0.0;867.77;47.06;19.51948;-96.915344;;;169.35483;0 / 0;95.2;87.0;4.073;66120;2014-11-08 13:54:21:934
7.5848;5.0087;9.0788;3.8036;5.7017;7.0139;2.6055;0.7707;2.0358;-0.4261;1.8821;-0.0767;42.0;-50.1;110.82;6.18;24.85;-35.55;-28.47;0.0;867.95;49.993;19.51948;-96.915344;;;169.35483;0 / 0;95.2;87.0;4.073;75355;2014-11-08 13:54:22:359
4.0606;3.4285;7.0198;3.8036;5.7017;7.0139;1.4452;-1.6211;1.246;-0.4261;1.8821;-0.0767;42.0;-50.1;110.82;6.18;24.85;-35.55;-28.47;0.0;867.95;49.993;19.51948;-96.915344;;;169.35483;0 / 0;95.2;87.0;4.073;66620;2014-11-08 13:54:22:434
4.1659;3.8403;9.3757;2.685;5.4753;7.68;1.1108;-2.4815;1.9752;-0.1158;-0.051;-0.6448;44.0;-48.48;113.04;6.42;24.37;-33.94;-24.61;0.0;867.88;48.615;19.51948;-96.915344;;;169.35483;0 / 0;95.2;87.0;4.073;75866;2014-11-08 13:54:22:870
4.1659;3.8403;9.3757;2.685;5.4753;7.68;2.3481;-1.2049;2.1649;-0.1158;-0.051;-0.6448;46.0;-48.48;113.04;6.42;24.37;-33.94;-24.61;0.0;867.88;48.615;19.51948;-96.915344;;;169.35483;0 / 0;95.2;87.0;4.073;67120;2014-11-08 13:54:22:934
4.6639;5.7461;7.3646;2.9483;5.2585;7.7347;0.5327;-0.7417;-1.6846;-0.617;-1.0003;-0.3769;54.0;-43.38;112.26;4.2;22.44;-32.43;-20.87;0.0;867.85;46.67;19.51948;-96.915344;;;169.35483;0 / 0;95.2;87.0;4.073;76375;2014-11-08 13:54:23:379
4.6639;5.7461;7.3646;3.518;5.3719;7.4119;0.5327;-0.7417;-1.6846;-0.8176;-0.5983;-0.0528;54.0;-43.38;112.26;4.2;22.44;-32.43;-20.87;0.0;867.85;46.67;19.51948;-96.915344;;;169.35483;0 / 0;95.2;87.0;4.073;67620;2014-11-08 13:54:23:434
4.865;5.1427;7.0198;3.6095;5.994;6.8712;-0.6539;-2.084;-0.3179;1.9978;0.3253;1.9734;61.0;-42.36;110.22;3.24;21.61;-37.68;-27.71;0.0;867.86;48.524;19.51948;-96.915344;;;169.35483;0 / 0;95.2;87.0;4.073;76884;2014-11-08 13:54:23:888
4.865;5.1427;7.0198;3.5448;6.8203;6.09;-0.6539;-2.084;-0.3179;1.9997;-0.0034;0.9154;73.0;-42.36;110.22;3.24;21.61;-37.68;-27.71;0.0;867.86;48.524;19.51948;-96.915344;;;169.35483;0 / 0;95.2;87.0;4.073;68123;2014-11-08 13:54:23:937
6.1387;5.5929;3.735;4.4431;7.6524;4.2273;1.2685;-2.5865;-2.3035;-1.5162;-1.1124;-0.719;141.0;-41.7;100.26;3.12;24.19;-59.11;-42.27;0.0;867.91;47.882;19.51948;-96.915344;;;169.35483;0 / 0;95.2;87.0;4.073;77389;2014-11-08 13:54:24:393
4.3383;4.7693;2.2122;4.4431;7.6524;4.2273;1.2685;-2.5865;-2.3035;-1.5162;-1.1124;-0.719;141.0;-42.18;96.42;3.0;20.75;-51.29;-46.43;0.0;867.91;47.882;19.51948;-96.915344;;;169.35483;0 / 0;95.2;87.0;4.073;68630;2014-11-08 13:54:24:444
1.0247;6.0334;4.8076;0.9418;6.6217;7.172;-1.277;-0.0999;0.365;0.9413;3.0559;0.4133;676.0;-32.4;90.12;2.94;25.55;-42.47;-7.48;0.0;867.94;48.001;19.51948;-96.915344;;;169.35483;0 / 0;95.2;87.0;4.073;78286;2014-11-08 13:54:25:290
4.118;9.4236;7.8817;1.7288;7.671;5.8599;3.2607;1.9441;1.1504;-0.1585;-1.551;1.1964;676.0;-21.72;87.72;6.84;22.98;-51.46;-16.44;0.0;867.94;48.001;19.51948;-96.915344;;;169.35483;0 / 0;95.2;87.0;4.073;69611;2014-11-08 13:54:25:425
3.3519;7.0964;6.4739;4.6457;4.6853;7.255;-1.2939;2.4111;-0.7811;-1.2452;-0.9853;-0.3256;354.0;-21.18;86.4;6.48;15.02;-28.41;-31.46;0.0;867.84;47.791;19.51948;-96.915344;;;169.35483;0 / 0;95.2;87.0;4.073;78908;2014-11-08 13:54:25:912
5.3247;5.8993;8.6095;5.0501;4.5117;7.093;0.332;3.686;2.7519;-1.6365;-0.8234;-0.2059;337.0;-26.58;90.36;4.92;16.28;-27.39;-35.45;0.0;867.84;46.542;19.51948;-96.915344;;;169.35483;0 / 0;95.2;87.0;4.073;70249;2014-11-08 13:54:26:063
4.8746;3.1412;5.5354;4.0512;5.888;6.7148;-0.278;-3.4172;-2.2712;0.941;-0.3595;0.1268;526.0;-34.98;99.36;-0.36;18.16;-33.27;-29.44;0.0;868.01;47.464;19.51948;-96.915344;;;169.35483;0 / 0;95.2;87.0;4.073;79411;2014-11-08 13:54:26:415
6.2153;5.7365;9.7779;3.9998;5.9791;6.665;1.4781;-2.541;-0.1241;-0.4954;0.3253;-0.1704;576.0;-36.36;103.44;-1.62;17.61;-37.57;-30.97;0.0;867.92;47.464;19.51948;-96.915344;;;169.35483;0 / 0;95.2;87.0;4.073;70767;2014-11-08 13:54:26:581
2.3463;1.4844;4.8842;3.5473;5.2477;7.4866;-1.2009;-3.7633;-2.6024;1.0626;1.2932;0.7013;785.0;-39.6;113.46;-0.18;19.06;-32.35;-25.35;0.0;868.0;45.987;19.51948;-96.915344;;;169.35483;0 / 0;95.2;87.0;4.073;80384;2014-11-08 13:54:27:388
2.3463;1.4844;4.8842;3.5473;5.2477;7.4866;-1.2009;-3.7633;-2.6024;1.0626;1.2932;0.7013;785.0;-39.6;113.46;-0.18;19.06;-32.35;-25.35;0.0;868.0;45.987;19.51948;-96.915344;;;169.35483;0 / 0;95.2;87.0;4.073;71577;2014-11-08 13:54:27:391
1.312;2.241;7.4795;0.3205;4.7837;8.5547;0.9915;-2.5428;-1.0752;-0.5421;0.0281;-0.3384;3216.0;-36.84;116.34;0.42;21.16;-38.04;-8.22;0.0;868.0;51.878;19.51948;-96.915344;;;169.35483;0 / 0;95.2;87.0;4.073;80884;2014-11-08 13:54:27:888
1.312;2.241;7.4795;0.3205;4.7837;8.5547;0.9915;-2.5428;-1.0752;-0.5421;0.0281;-0.3384;3216.0;-36.84;116.34;0.42;21.16;-38.04;-8.22;0.0;868.0;51.878;19.51948;-96.915344;;;169.35483;0 / 0;95.2;87.0;4.073;72077;2014-11-08 13:54:27:891
0.9577;3.3902;9.3853;1.4423;5.0741;8.267;-0.4846;-1.684;1.1183;-0.0846;0.3225;0.6341;2290.0;-31.56;116.82;-0.48;16.71;-30.47;-12.04;0.0;867.92;53.759;19.51948;-96.915344;;;169.35483;0 / 0;95.2;87.0;4.073;81384;2014-11-08 13:54:28:388
0.9577;3.3902;9.3853;1.4423;5.0741;8.267;-0.4846;-1.684;1.1183;-0.0846;0.3225;0.6341;2290.0;-31.56;116.82;-0.48;16.71;-30.47;-12.04;0.0;867.92;53.759;19.51948;-96.915344;;;169.35483;0 / 0;95.2;87.0;4.073;72577;2014-11-08 13:54:28:391
3.0263;3.6488;8.4372;1.2842;5.6799;7.8905;1.7421;-2.0312;0.5467;-0.1216;-0.0999;-0.175;2372.0;-32.52;114.9;-1.68;18.51;-37.79;-10.59;0.0;867.99;54.284;19.51948;-96.915344;;;169.35483;0 / 0;95.2;87.0;4.073;81894;2014-11-08 13:54:28:898
3.0263;3.6488;8.4372;1.2842;5.6799;7.8905;1.7421;-2.0312;0.5467;-0.1216;-0.0999;-0.175;2372.0;-32.52;114.9;-1.68;18.51;-37.79;-10.59;0.0;867.99;54.284;19.51948;-96.915344;;;169.35483;0 / 0;95.2;87.0;4.073;73088;2014-11-08 13:54:28:902
1.5131;5.1044;12.2966;1.5456;5.9614;7.6317;0.0729;-1.4891;3.1518;0.9255;0.9255;1.2926;1872.0;-34.32;113.4;-2.52;18.13;-35.77;-14.38;0.0;867.88;53.248;19.51948;-96.915344;;;169.35483;0 / 0;95.2;87.0;4.073;82409;2014-11-08 13:54:29:413
1.5131;5.1044;12.2966;1.5456;5.9614;7.6317;0.0729;-1.4891;3.1518;0.9255;0.9255;1.2926;1872.0;-34.32;113.4;-2.52;18.13;-35.77;-14.38;0.0;867.88;53.248;19.51948;-96.915344;;;169.35483;0 / 0;95.2;87.0;4.073;73602;2014-11-08 13:54:29:416
5.3822;3.3423;9.979;1.8226;6.1588;7.4107;2.2572;-2.7782;-0.0461;-0.4581;0.128;-0.5666;1660.0;-34.98;111.66;-2.52;19.45;-38.9;-13.82;0.0;867.93;51.404;19.51948;-96.915344;;;169.35483;0 / 0;95.2;87.0;4.073;82909;2014-11-08 13:54:29:913
5.3822;3.3423;9.979;1.8226;6.1588;7.4107;2.2572;-2.7782;-0.0461;-0.4581;0.128;-0.5666;1660.0;-34.98;111.66;-2.52;19.45;-38.9;-13.82;0.0;867.93;51.404;19.51948;-96.915344;;;169.35483;0 / 0;95.2;87.0;4.073;74102;2014-11-08 13:54:29:916
2.2027;7.0677;10.9846;4.246;5.2524;7.1102;-1.7847;0.2639;0.4076;-0.3833;-1.7938;0.2199;1629.0;-37.32;112.38;-1.92;16.22;-32.38;-30.84;0.0;867.92;56.286;19.51948;-96.915344;;;169.35483;0 / 0;95.2;87.0;4.073;83409;2014-11-08 13:54:30:413
2.2027;7.0677;10.9846;4.246;5.2524;7.1102;-1.7847;0.2639;0.4076;-0.3833;-1.7938;0.2199;1629.0;-37.32;112.38;-1.92;16.22;-32.38;-30.84;0.0;867.92;56.286;19.51948;-96.915344;;;169.35483;0 / 0;95.2;87.0;4.073;74602;2014-11-08 13:54:30:416
5.4492;3.3998;8.2265;3.1448;5.6399;7.3806;2.0075;-2.604;0.6735;-1.0333;0.212;-0.5027;1321.0;-39.18;114.0;-1.38;18.81;-34.58;-24.04;0.0;867.94;49.665;19.51948;-96.915344;;;169.35483;0 / 0;95.2;87.0;4.073;83924;2014-11-08 13:54:30:928
5.4492;3.3998;8.2265;3.1448;5.6399;7.3806;2.0075;-2.604;0.6735;-1.0333;0.212;-0.5027;1321.0;-39.18;114.0;-1.38;18.81;-34.58;-24.04;0.0;867.94;49.665;19.51948;-96.915344;;;169.35483;0 / 0;95.2;87.0;4.073;75119;2014-11-08 13:54:30:933
2.4517;4.8842;9.5672;2.8328;4.8836;8.0185;-0.4194;-0.325;0.3899;-0.3482;0.1677;0.0907;1894.0;-42.78;116.94;0.3;20.47;-29.87;-19.46;0.0;867.94;47.052;19.51948;-96.915344;;;169.35483;0 / 0;95.2;87.0;4.073;84444;2014-11-08 13:54:31:448
2.4517;4.8842;9.5672;2.8328;4.8836;8.0185;-0.4194;-0.325;0.3899;-0.3482;0.1677;0.0907;1894.0;-42.78;116.94;0.3;20.47;-29.87;-19.46;0.0;867.94;47.052;19.51948;-96.915344;;;169.35483;0 / 0;95.2;87.0;4.073;75637;2014-11-08 13:54:31:451
2.5283;2.7485;10.1418;0.7803;5.0481;8.3713;0.6754;-1.9835;1.2342;-0.1772;0.4664;-0.3793;2365.0;-42.84;118.74;1.02;21.79;-31.03;-11.49;0.0;867.89;44.593;19.51948;-96.915344;;;169.35483;0 / 0;95.2;87.0;4.073;84950;2014-11-08 13:54:31:954
2.5283;2.7485;10.1418;0.7803;5.0481;8.3713;0.6754;-1.9835;1.2342;-0.1772;0.4664;-0.3793;2365.0;-42.84;118.74;1.02;21.79;-31.03;-11.49;0.0;867.89;44.593;19.51948;-96.915344;;;169.35483;0 / 0;95.2;87.0;4.073;76146;2014-11-08 13:54:31:960
1.5993;4.6256;8.5521;1.5723;4.9873;8.2961;-0.0592;-0.5053;-1.1997;-0.504;-0.0733;-0.7245;2025.0;-38.34;118.38;-0.24;19.44;-28.39;-8.49;0.0;867.97;45.126;19.51948;-96.915344;;;169.35483;0 / 0;95.2;87.0;4.073;85457;2014-11-08 13:54:32:461
1.5993;4.6256;8.5521;1.5723;4.9873;8.2961;-0.0592;-0.5053;-1.1997;-0.504;-0.0733;-0.7245;2025.0;-38.34;118.38;-0.24;19.44;-28.39;-8.49;0.0;867.97;45.126;19.51948;-96.915344;;;169.35483;0 / 0;95.2;87.0;4.073;76675;2014-11-08 13:54:32:489
2.1739;2.6815;4.7022;1.698;5.3689;8.0288;0.1025;-2.8694;-0.6834;1.3182;0.0867;0.8751;1542.0;-39.12;117.3;-0.9;20.25;-33.19;-11.94;0.0;868.06;44.292;19.51948;-96.915344;;;169.35483;0 / 0;95.2;87.0;4.073;85958;2014-11-08 13:54:32:962
2.873;3.2753;5.6886;2.1637;5.3619;7.9208;0.3358;-2.1536;-3.4389;-0.029;-0.573;0.0727;1542.0;-39.12;117.3;-0.9;20.25;-33.19;-11.94;0.0;868.06;44.28;19.51948;-96.915344;;;169.35483;0 / 0;95.2;87.0;4.073;77192;2014-11-08 13:54:33:006
3.4093;1.7334;4.616;2.2206;4.3362;8.511;3.3052;-2.938;-1.3858;0.6881;0.9349;-1.2917;1693.0;-42.9;118.5;-0.24;20.46;-26.24;-14.62;0.0;867.97;47.307;19.51948;-96.915344;;;169.35483;0 / 0;95.2;87.0;4.073;86458;2014-11-08 13:54:33:462
3.4093;1.7334;4.616;2.2206;4.3362;8.511;3.3052;-2.938;-1.3858;0.6881;0.9349;-1.2917;1693.0;-42.9;118.5;-0.24;20.46;-26.24;-14.62;0.0;867.97;47.307;19.51948;-96.915344;;;169.35483;0 / 0;95.2;87.0;4.073;77692;2014-11-08 13:54:33:506
-0.4597;2.1452;6.5697;1.2251;5.4034;8.0915;-1.7231;-2.8656;2.012;0.0611;-0.1466;0.7358;2046.0;-44.76;118.62;-0.3;22.78;-32.43;-11.19;0.0;867.97;46.652;19.51948;-96.915344;;;169.35483;0 / 0;95.2;87.0;4.073;86968;2014-11-08 13:54:33:972
-0.4597;2.1452;6.5697;1.2251;5.4034;8.0915;-1.7231;-2.8656;2.012;0.0611;-0.1466;0.7358;2046.0;-45.18;118.92;-0.18;23.36;-33.44;-8.61;0.0;867.97;46.652;19.51948;-96.915344;;;169.35483;0 / 0;95.2;87.0;4.073;78199;2014-11-08 13:54:34:013
2.8252;2.2027;4.4149;1.5771;4.0991;8.7682;1.6407;-1.906;-3.5009;-0.8537;-0.5202;-0.401;1706.0;-47.7;116.94;0.18;23.27;-24.71;-10.2;0.0;868.0;45.714;19.51948;-96.915344;;;169.35483;0 / 0;95.2;87.0;4.073;87687;2014-11-08 13:54:34:691
2.8252;2.2027;4.4149;1.5771;4.0991;8.7682;1.6407;-1.906;-3.5009;-0.8537;-0.5202;-0.401;1706.0;-47.7;116.94;0.18;23.27;-24.71;-10.2;0.0;868.0;45.714;19.51948;-96.915344;;;169.35483;0 / 0;95.2;87.0;4.073;78880;2014-11-08 13:54:34:694
-0.9768;1.3982;6.6942;-0.202;3.8464;9.0186;-0.8514;-2.9462;-1.3954;0.4661;-0.0541;0.6524;1162.0;-50.4;120.3;3.3;24.65;-23.09;1.28;0.0;867.92;51.497;19.51948;-96.915344;;;169.35483;0 / 0;95.2;87.0;4.073;88199;2014-11-08 13:54:35:203
-0.9768;1.3982;6.6942;-0.202;3.8464;9.0186;-0.8514;-2.9462;-1.3954;0.4661;-0.0541;0.6524;1162.0;-50.4;120.3;3.3;24.65;-23.09;1.28;0.0;867.92;51.497;19.51948;-96.915344;;;169.35483;0 / 0;95.2;87.0;4.073;79392;2014-11-08 13:54:35:206
2.059;1.8962;11.6837;-0.5376;3.6629;9.081;2.2423;-1.0293;2.7368;-1.2202;0.1692;-0.723;872.0;-50.52;121.14;3.78;24.81;-21.93;3.39;0.0;867.91;48.05;19.51948;-96.915344;;;169.35483;0 / 0;95.2;87.0;4.073;88700;2014-11-08 13:54:35:704
2.059;1.8962;11.6837;-0.5376;3.6629;9.081;2.2423;-1.0293;2.7368;-1.2202;0.1692;-0.723;872.0;-50.52;121.14;3.78;24.81;-21.93;3.39;0.0;867.91;48.05;19.51948;-96.915344;;;169.35483;0 / 0;95.2;87.0;4.073;79899;2014-11-08 13:54:35:713
0.9864;4.8171;8.983;0.1594;4.9576;8.4597;0.8941;-0.0734;0.4946;0.0562;0.1188;0.2834;783.0;-50.1;117.24;1.8;26.48;-30.37;-1.08;0.0;867.94;47.633;19.51948;-96.915344;;;169.35483;0 / 0;95.2;87.0;4.073;89204;2014-11-08 13:54:36:208
0.9864;4.8171;8.983;0.1594;4.9576;8.4597;0.8941;-0.0734;0.4946;0.0562;0.1188;0.2834;783.0;-50.1;117.24;1.8;26.48;-30.37;-1.08;0.0;867.94;47.633;19.51948;-96.915344;;;169.35483;0 / 0;95.2;87.0;4.073;80400;2014-11-08 13:54:36:214
-0.0096;4.7118;8.5521;-0.2981;4.9302;8.472;0.2214;-1.3484;-1.7299;-0.1228;-0.2749;0.1243;707.0;-49.08;115.62;0.96;26.32;-30.18;2.01;0.0;867.97;47.424;19.51948;-96.915344;;;169.35483;0 / 0;95.2;87.0;4.073;89708;2014-11-08 13:54:36:712
-0.0096;4.7118;8.5521;-0.2981;4.9302;8.472;0.2214;-1.3484;-1.7299;-0.1228;-0.2749;0.1243;707.0;-49.08;115.62;0.96;26.32;-30.18;2.01;0.0;867.97;47.424;19.51948;-96.915344;;;169.35483;0 / 0;95.2;87.0;4.073;80903;2014-11-08 13:54:36:717
0.6704;3.3998;6.79;-0.4196;4.657;8.6201;1.4826;-2.215;-2.06;0.1228;0.0476;-0.5052;679.0;-48.18;115.32;0.6;25.68;-28.35;2.79;0.0;867.88;44.375;19.51948;-96.915344;;;169.35483;0 / 0;95.2;87.0;4.073;90223;2014-11-08 13:54:37:227
0.6704;3.3998;6.79;-0.4196;4.657;8.6201;1.4826;-2.215;-2.06;0.1228;0.0476;-0.5052;679.0;-48.18;115.32;0.6;25.68;-28.35;2.79;0.0;867.88;44.375;19.51948;-96.915344;;;169.35483;0 / 0;95.2;87.0;4.073;81416;2014-11-08 13:54:37:230
-0.9673;2.7294;6.7708;-0.8377;4.826;8.4958;-0.4168;-2.5563;0.1234;-0.1946;0.4719;-0.1191;873.0;-47.82;115.08;0.54;26.1;-29.48;5.63;0.0;867.93;43.982;19.51948;-96.915344;;;169.35483;0 / 0;95.2;87.0;4.073;90734;2014-11-08 13:54:37:738
-0.9673;2.7294;6.7708;-0.8377;4.826;8.4958;-0.4168;-2.5563;0.1234;-0.1946;0.4719;-0.1191;873.0;-47.82;115.08;0.54;26.1;-29.48;5.63;0.0;867.93;43.982;19.51948;-96.915344;;;169.35483;0 / 0;95.2;87.0;4.073;81927;2014-11-08 13:54:37:741
-1.8292;1.743;10.7069;-1.9716;4.2212;8.6293;0.1424;-2.4783;2.0776;-0.7624;0.2453;-1.42;1261.0;-47.64;115.5;0.78;25.57;-27.64;12.33;0.0;867.94;44.256;19.51948;-96.915344;;;169.35483;0 / 0;95.2;87.0;4.073;91234;2014-11-08 13:54:38:238
-1.8292;1.743;10.7069;-1.9716;4.2212;8.6293;0.1424;-2.4783;2.0776;-0.7624;0.2453;-1.42;1261.0;-47.64;115.5;0.78;25.57;-27.64;12.33;0.0;867.95;44.256;19.51948;-96.915344;;;169.35483;0 / 0;95.2;87.0;4.073;82427;2014-11-08 13:54:38:241
-1.3886;4.6831;9.663;-1.5453;5.6029;7.8987;0.1567;-0.9199;1.7643;0.0733;1.4413;0.4111;1041.0;-48.6;115.26;1.56;28.49;-34.84;11.07;0.0;867.88;43.236;19.51948;-96.915344;;;169.35483;0 / 0;95.2;87.0;4.073;91766;2014-11-08 13:54:38:770
-1.3886;4.6831;9.663;-1.5453;5.6029;7.8987;0.1567;-0.9199;1.7643;0.0733;1.4413;0.4111;1041.0;-48.6;115.26;1.56;28.49;-34.84;11.07;0.0;867.88;43.236;19.51948;-96.915344;;;169.35483;0 / 0;95.2;87.0;4.073;82959;2014-11-08 13:54:38:773
-1.743;3.0358;6.9911;-2.5332;4.8435;8.1421;0.7902;-1.8077;-1.151;-0.2575;-0.3054;0.1805;1330.0;-48.18;113.34;1.2;26.65;-29.6;17.28;0.0;867.91;44.421;19.520107;-96.91568;;;116.12903;0 / 0;95.2;87.0;4.073;92289;2014-11-08 13:54:39:293
-1.743;3.0358;6.9911;-2.5332;4.8435;8.1421;0.7902;-1.8077;-1.151;-0.2575;-0.3054;0.1805;1330.0;-48.18;113.34;1.2;26.65;-29.6;17.28;0.0;867.91;44.421;19.520107;-96.91568;;;116.12903;0 / 0;95.2;87.0;4.073;83495;2014-11-08 13:54:39:309
-0.4788;2.241;7.0294;-2.34;5.0645;8.0651;1.6888;-2.881;0.6977;0.4246;-0.0015;-0.4041;1465.0;-48.12;112.2;0.48;27.38;-31.09;16.18;0.0;867.91;42.803;19.520107;-96.91568;;;116.12903;0 / 0;95.2;87.0;4.073;92792;2014-11-08 13:54:39:796
-0.4788;2.241;7.0294;-2.34;5.0645;8.0651;1.6888;-2.881;0.6977;0.4246;-0.0015;-0.4041;1465.0;-48.12;112.2;0.48;27.38;-31.09;16.18;0.0;867.91;42.803;19.520107;-96.91568;;;116.12903;0 / 0;95.2;87.0;4.073;84000;2014-11-08 13:54:39:814
-2.1261;2.0016;8.7149;-1.6;5.2146;8.1497;-0.392;-2.8108;2.7487;0.4004;-0.0202;0.201;1425.0;-49.56;111.36;0.6;28.46;-30.6;11.1;0.0;867.91;43.625;19.520107;-96.91568;;;116.12903;0 / 0;95.2;87.0;4.073;93303;2014-11-08 13:54:40:307
-2.1261;2.0016;8.7149;-1.6;5.2146;8.1497;-0.392;-2.8108;2.7487;0.4004;-0.0202;0.201;1425.0;-49.56;111.36;0.6;28.46;-30.6;11.1;0.0;867.91;43.625;19.520107;-96.91568;;;116.12903;0 / 0;95.2;87.0;4.073;84500;2014-11-08 13:54:40:314
-0.5363;3.9935;10.161;-1.9587;4.8917;8.2708;0.3977;-1.1376;-0.1975;-0.0254;-0.5449;-0.1051;1582.0;-51.36;110.4;1.08;29.03;-29.92;13.32;0.0;867.95;44.52;19.520107;-96.91568;;;116.12903;0 / 0;95.2;87.0;4.073;93826;2014-11-08 13:54:40:830
-0.5363;3.9935;10.161;-1.9587;4.8917;8.2708;0.3977;-1.1376;-0.1975;-0.0254;-0.5449;-0.1051;1582.0;-51.36;110.4;1.08;29.03;-29.92;13.32;0.0;867.95;44.52;19.520107;-96.91568;;;116.12903;0 / 0;95.2;87.0;4.073;85019;2014-11-08 13:54:40:833
-1.0439;4.118;9.4715;-1.5142;5.0534;8.2668;1.3514;-1.2036;-0.0403;-0.0278;-0.1674;0.1026;1835.0;-54.3;108.9;2.22;31.12;-31.02;10.38;0.0;867.95;44.849;19.520107;-96.91568;;;116.12903;0 / 0;95.2;87.0;4.073;94383;2014-11-08 13:54:41:387
-1.0439;4.118;9.4715;-1.5142;5.0534;8.2668;1.3514;-1.2036;-0.0403;-0.0278;-0.1674;0.1026;1835.0;-54.3;108.9;2.22;31.12;-31.02;10.38;0.0;867.95;44.849;19.520107;-96.91568;;;116.12903;0 / 0;95.2;87.0;4.073;85576;2014-11-08 13:54:41:390
-1.5993;3.5721;8.9639;-2.4693;4.5982;8.3024;0.8508;-1.8783;-1.5699;0.1744;-0.0843;0.1298;1546.0;-55.38;107.94;2.94;31.15;-28.55;13.14;0.0;867.89;46.647;19.520107;-96.91568;;;116.12903;0 / 0;95.2;87.0;4.073;94887;2014-11-08 13:54:41:891
-1.5993;3.5721;8.9639;-2.4693;4.5982;8.3024;0.8508;-1.8783;-1.5699;0.1744;-0.0843;0.1298;1546.0;-55.38;107.94;2.94;31.15;-28.55;13.14;0.0;867.89;46.647;19.520107;-96.91568;;;116.12903;0 / 0;95.2;87.0;4.073;86094;2014-11-08 13:54:41:908
0.5459;2.4995;5.3726;-2.1367;4.8821;8.2323;2.5293;-2.0186;-3.0608;0.3137;-0.0712;-0.6493;1782.0;-55.08;105.78;2.88;31.5;-28.16;15.72;0.0;868.04;45.331;19.520107;-96.91568;;;116.12903;0 / 0;95.2;87.0;4.073;95404;2014-11-08 13:54:42:408
0.5459;2.4995;5.3726;-2.1367;4.8821;8.2323;2.5293;-2.0186;-3.0608;0.3137;-0.0712;-0.6493;1782.0;-55.08;105.78;2.88;31.5;-28.16;15.72;0.0;868.04;45.331;19.520107;-96.91568;;;116.12903;0 / 0;95.2;87.0;4.073;86597;2014-11-08 13:54:42:411
-2.308;1.2546;8.2552;-1.9613;5.4536;7.9109;-1.2182;-4.0649;2.7864;0.3742;0.2654;0.4936;1362.0;-55.2;102.18;2.46;33.27;-30.57;9.65;0.0;867.93;47.128;19.520107;-96.91568;;;116.12903;0 / 0;95.2;87.0;4.073;95904;2014-11-08 13:54:42:908
-2.308;1.2546;8.2552;-1.9613;5.4536;7.9109;-1.2182;-4.0649;2.7864;0.3742;0.2654;0.4936;1362.0;-55.2;102.18;2.46;33.27;-30.57;9.65;0.0;867.93;47.128;19.520107;-96.91568;;;116.12903;0 / 0;95.2;87.0;4.073;87098;2014-11-08 13:54:42:912
-0.1628;1.5323;9.7875;-2.5337;4.4817;8.3466;1.2121;-2.2503;3.4425;0.4847;-0.3112;-0.3601;1583.0;-54.66;100.92;2.1;34.58;-32.54;18.9;0.0;867.95;45.511;19.520107;-96.91568;;;116.12903;0 / 0;95.2;87.0;4.073;96404;2014-11-08 13:54:43:408
-0.1628;1.5323;9.7875;-2.5337;4.4817;8.3466;1.2121;-2.2503;3.4425;0.4847;-0.3112;-0.3601;1583.0;-54.66;100.92;2.1;34.58;-32.54;18.9;0.0;867.95;45.511;19.520107;-96.91568;;;116.12903;0 / 0;95.2;87.0;4.073;87600;2014-11-08 13:54:43:414
-1.8004;2.2984;11.8561;-0.9766;5.2033;8.2549;-1.2644;-0.8937;2.4329;-0.2242;0.2553;-0.0626;1644.0;-56.64;98.22;4.26;36.4;-32.16;12.62;0.0;867.95;43.543;19.520107;-96.91568;;;116.12903;0 / 0;95.2;87.0;4.073;96906;2014-11-08 13:54:43:910
-1.8004;2.2984;11.8561;-0.9766;5.2033;8.2549;-1.2644;-0.8937;2.4329;-0.2242;0.2553;-0.0626;1644.0;-56.64;98.22;4.26;36.4;-32.16;12.62;0.0;867.95;43.543;19.520107;-96.91568;;;116.12903;0 / 0;95.2;87.0;4.073;88101;2014-11-08 13:54:43:915
-0.2682;3.1508;7.9296;-1.4092;5.1412;8.2312;1.6487;-1.8276;1.9681;0.1988;-0.5825;-0.1802;2118.0;-60.36;94.98;7.5;38.99;-31.46;11.78;0.0;867.94;43.489;19.520107;-96.91568;;;116.12903;0 / 0;95.2;87.0;4.073;97408;2014-11-08 13:54:44:412
-0.2682;3.1508;7.9296;-1.4092;5.1412;8.2312;1.6487;-1.8276;1.9681;0.1988;-0.5825;-0.1802;2118.0;-60.36;94.98;7.5;38.99;-31.46;11.78;0.0;867.94;43.489;19.520107;-96.91568;;;116.12903;0 / 0;95.2;87.0;4.073;88601;2014-11-08 13:54:44:415
0.6512;2.988;5.9568;-1.1128;4.6891;8.5407;1.8406;-1.9885;-2.5744;0.1423;0.0263;-0.0476;2345.0;-62.76;93.96;10.44;39.61;-28.57;7.42;0.0;868.04;45.71;19.520107;-96.91568;;;116.12903;0 / 0;95.2;87.0;4.073;97911;2014-11-08 13:54:44:915
0.6512;2.988;5.9568;-0.9648;5.0989;8.3211;1.2712;-1.3543;-1.7514;0.1423;0.0263;-0.0476;2345.0;-62.76;93.96;10.44;39.61;-28.57;7.42;0.0;868.04;45.71;19.520107;-96.91568;;;116.12903;0 / 0;95.2;87.0;4.073;89109;2014-11-08 13:54:44:923
-0.3543;1.6185;6.6655;-0.9124;5.7646;7.8808;0.855;-3.7726;-0.0278;0.4414;0.4783;1.2819;2897.0;-64.8;93.18;12.78;44.92;-36.0;6.6;0.0;867.92;48.245;19.520107;-96.91568;;;116.12903;0 / 0;95.2;87.0;4.073;98420;2014-11-08 13:54:45:424
-0.3543;1.6185;6.6655;-0.9124;5.7646;7.8808;0.855;-3.7726;-0.0278;0.4414;0.4783;1.2819;2897.0;-64.8;93.18;12.78;44.92;-36.0;6.6;0.0;867.92;48.245;19.520107;-96.91568;;;116.12903;0 / 0;95.2;87.0;4.073;89614;2014-11-08 13:54:45:428
2.2218;2.49;5.928;-1.4077;4.5678;8.5629;4.0413;-2.164;-1.2558;0.7853;0.2941;-0.6946;2925.0;-65.58;96.12;12.0;41.13;-29.58;9.52;0.0;867.9;56.132;19.520107;-96.91568;;;116.12903;0 / 0;95.2;87.0;4.073;98923;2014-11-08 13:54:45:927
1.0247;3.0358;4.9895;-1.4561;4.9061;8.3654;2.4808;-1.8702;-3.3759;0.288;-0.1671;-0.5993;2778.0;-65.64;97.14;11.58;39.99;-27.76;9.34;0.0;867.9;56.132;19.520107;-96.91568;;;116.12903;0 / 0;95.2;87.0;4.073;90547;2014-11-08 13:54:46:361
0.6321;3.8499;10.228;-1.4561;4.9061;8.3654;2.4808;-1.8702;-3.3759;0.288;-0.1671;-0.5993;2778.0;-65.64;97.14;11.58;39.99;-27.76;9.34;0.0;867.9;50.614;19.520107;-96.91568;;;116.12903;0 / 0;95.2;87.0;4.073;99437;2014-11-08 13:54:46:441
1.2354;5.6312;8.4467;-1.12;6.6989;7.0739;2.341;-1.5355;1.1691;0.1338;-0.4062;-0.6771;2325.0;-63.06;96.18;8.94;49.14;-45.88;10.65;0.0;867.99;51.577;19.520107;-96.91568;;;116.12903;0 / 0;95.2;87.0;4.073;91048;2014-11-08 13:54:46:862
1.2354;5.6312;8.4467;-1.12;6.6989;7.0739;2.4442;-0.0857;2.876;-0.6371;-1.2037;-1.2275;2632.0;-62.76;95.88;8.64;46.7;-43.09;9.0;0.0;867.88;51.577;19.520107;-96.91568;;;116.12903;0 / 0;95.2;87.0;4.073;99952;2014-11-08 13:54:46:956
-1.2546;6.5505;6.1866;-0.3046;6.2602;7.5423;-0.9543;-0.4107;-1.987;-0.3503;-0.0608;-0.2074;2575.0;-63.36;94.44;9.48;43.92;-39.67;2.31;0.0;867.97;52.446;19.520107;-96.91568;;;116.12903;0 / 0;94.1;86.0;3.988;91555;2014-11-08 13:54:47:369
-1.2546;6.5505;6.1866;0.4942;6.3451;7.4609;-2.225;1.9609;1.1207;-0.5043;0.3732;0.6506;2575.0;-63.3;93.3;9.96;43.41;-40.32;-3.79;0.0;867.97;55.083;19.520107;-96.91568;;;116.12903;0 / 0;94.1;86.0;3.988;100464;2014-11-08 13:54:47:468
0.3256;3.5051;5.4971;-0.1862;6.3444;7.4756;1.3083;-2.6158;-2.1015;-0.0235;0.4829;-0.0834;2576.0;-64.74;92.58;10.92;43.5;-38.09;-3.86;0.0;867.93;53.606;19.520107;-96.91568;;;116.12903;0 / 0;94.1;86.0;3.988;92065;2014-11-08 13:54:47:879
2.308;5.0566;9.0788;-0.4745;5.9308;7.7956;3.4843;-0.9538;1.4197;-0.7639;-0.3235;0.212;2601.0;-64.86;93.06;11.04;45.88;-40.31;1.43;0.0;867.93;53.606;19.520107;-96.91568;;;116.12903;0 / 0;94.1;86.0;3.988;100984;2014-11-08 13:54:47:988
1.0151;3.2561;4.2713;-0.2894;5.2022;8.3081;2.0027;-2.2509;-3.7828;-0.0544;0.4187;-0.6222;2676.0;-65.58;94.92;11.46;43.4;-34.15;7.45;0.0;867.96;51.827;19.520107;-96.91568;;;116.12903;0 / 0;94.1;86.0;3.988;92578;2014-11-08 13:54:48:392
1.0151;3.2561;4.2713;-0.4261;5.3947;8.1784;2.0027;-2.2509;-3.7828;-0.0544;0.4187;-0.6222;2676.0;-65.46;98.22;10.2;40.16;-32.04;2.0;0.0;868.05;51.827;19.520107;-96.91568;;;116.12903;0 / 0;94.1;86.0;3.988;101488;2014-11-08 13:54:48:492
0.5267;2.8539;9.0788;-0.6376;4.7639;8.548;0.622;-1.5673;0.3259;-0.1958;-0.4081;0.9416;2750.0;-65.1;102.24;9.6;38.55;-30.47;4.23;0.0;868.03;50.572;19.520107;-96.91568;;;116.12903;0 / 0;94.1;86.0;3.988;93078;2014-11-08 13:54:48:892
1.561;2.2793;7.7668;0.6261;4.9896;8.4192;1.6259;-2.5627;-0.7609;1.076;-0.602;0.164;2429.0;-65.34;103.32;9.78;37.72;-29.06;4.27;0.0;868.03;49.412;19.520107;-96.91568;;;116.12903;0 / 0;94.1;86.0;3.988;102003;2014-11-08 13:54:49:007
3.3902;2.3176;7.8243;0.7827;3.9377;8.9472;2.7293;-2.0031;-0.9545;0.1756;-0.2758;-0.2217;544.0;-65.82;104.52;11.16;35.88;-25.81;-4.91;0.0;867.97;45.619;19.520107;-96.91568;;;116.12903;0 / 0;94.1;86.0;3.988;93593;2014-11-08 13:54:49:407
3.1316;2.1931;6.0238;0.7827;3.9377;8.9472;2.2415;-2.0838;-2.7561;0.317;0.3134;-0.7532;544.0;-66.18;104.34;11.7;35.76;-23.67;-5.0;0.0;867.97;45.619;19.520107;-96.91568;;;116.12903;0 / 0;94.1;86.0;3.988;102503;2014-11-08 13:54:49:507
2.0782;3.237;10.2759;1.4809;5.3088;8.1114;1.8999;-2.7075;2.4783;1.4166;-1.0247;0.4218;119.0;-67.68;99.48;13.74;40.11;-32.78;-10.35;0.0;867.88;46.331;19.520107;-96.91568;;;116.12903;0 / 0;94.1;86.0;3.988;94101;2014-11-08 13:54:49:915
3.4572;3.4668;6.8378;1.8909;5.6194;7.8113;2.242;-2.8493;-0.5649;1.5443;-0.4078;-0.0996;37.0;-67.68;99.48;13.74;40.11;-32.78;-10.35;0.0;867.95;46.331;19.520107;-96.91568;;;116.12903;0 / 0;94.1;86.0;3.988;103024;2014-11-08 13:54:50:028
7.2784;4.2425;6.8761;3.9658;5.9039;6.7518;3.7506;-1.2157;-0.4677;-1.865;-0.555;-1.8637;64.0;-70.38;92.1;21.42;43.81;-38.45;-21.56;0.0;867.86;45.444;19.520107;-96.91568;;;116.12903;0 / 0;94.1;86.0;3.988;94612;2014-11-08 13:54:50:426
5.3917;2.8252;5.2672;4.4464;4.4833;7.5033;0.9412;-1.8436;-2.1196;-2.167;-0.2117;-0.4163;76.0;-70.2;88.8;24.48;42.21;-37.02;-30.43;0.0;867.89;46.287;19.520107;-96.91568;;;116.12903;0 / 0;94.1;86.0;3.988;103532;2014-11-08 13:54:50:536
5.5354;3.0071;6.4643;3.1439;4.9434;7.8645;2.3915;-1.9362;-1.4001;-0.569;0.3134;-1.0385;143.0;-65.88;76.98;32.1;48.74;-30.63;-22.8;0.0;867.96;45.829;19.520107;-96.91568;;;116.12903;0 / 0;94.1;86.0;3.988;95541;2014-11-08 13:54:51:355
1.1109;4.5777;7.4986;0.9497;6.8005;7.0016;0.1612;-2.2228;0.4971;-0.0754;-0.1249;-0.7654;50.0;-48.72;65.82;28.68;46.93;-30.27;-21.79;0.0;867.96;45.829;19.520107;-96.91568;;;116.12903;0 / 0;94.1;86.0;3.988;104573;2014-11-08 13:54:51:577
-1.1971;4.5107;6.9623;-0.218;5.5457;8.0851;-0.9791;-1.035;-1.1227;-0.3131;0.2468;-0.2196;58.0;-21.0;66.9;20.4;29.48;-39.12;-6.61;0.0;867.98;46.432;19.520107;-96.91568;;;116.12903;0 / 0;94.1;86.0;3.988;96328;2014-11-08 13:54:52:142
-1.1971;4.5107;6.9623;-0.218;5.5457;8.0851;-0.9791;-1.035;-1.1227;-0.3131;0.2468;-0.2196;1287.0;-21.0;66.9;20.4;29.48;-39.12;-6.61;0.0;867.98;46.432;19.520107;-96.91568;;;116.12903;0 / 0;94.1;86.0;3.988;105235;2014-11-08 13:54:52:239
1.81;2.3272;7.4986;1.6625;5.1519;8.1771;-0.1877;-2.0873;1.2561;-0.7798;-1.3219;-1.4251;1687.0;-8.28;77.4;15.36;8.7;-38.3;0.72;0.0;868.0;45.468;19.520107;-96.91568;;;116.12903;0 / 0;94.1;86.0;3.988;96857;2014-11-08 13:54:52:671
1.0343;3.8403;9.6534;1.6625;5.1519;8.1771;-0.1877;-2.0873;1.2561;0.0046;-0.347;-1.0131;1687.0;-8.28;77.4;15.36;8.7;-38.3;0.72;0.0;867.9;45.468;19.520107;-96.91568;;;116.12903;0 / 0;94.1;86.0;3.988;105742;2014-11-08 13:54:52:746
3.553;6.6367;5.9185;2.2084;7.0447;6.4548;0.8083;0.4539;-1.3791;1.1212;-0.1982;-0.664;1409.0;-6.06;83.16;12.0;8.41;-35.17;-16.69;0.0;867.87;50.959;19.520107;-96.91568;;;116.12903;0 / 0;94.1;86.0;3.988;97357;2014-11-08 13:54:53:171
2.6815;7.9583;7.7476;3.1672;7.7499;5.1066;0.2708;-1.5442;0.9842;1.0516;-2.35;-0.7059;1409.0;-5.7;83.16;12.3;10.62;-45.92;-18.89;0.0;867.91;50.959;19.520107;-96.91568;;;116.12903;0 / 0;94.1;86.0;3.988;106255;2014-11-08 13:54:53:259
-0.2586;4.865;6.9623;3.3733;6.7664;6.2456;-3.5935;-2.7442;-1.7828;-0.9551;-1.5195;-0.8894;1839.0;-7.08;86.88;9.24;10.91;-48.18;-30.06;0.0;868.05;57.242;19.520107;-96.91568;;;116.12903;0 / 0;94.1;86.0;3.988;97879;2014-11-08 13:54:53:693
-0.2586;4.865;6.9623;2.9666;5.9855;7.1793;-2.8709;-1.1588;1.3536;-0.9551;-1.5195;-0.8894;1839.0;-8.16;89.22;7.86;9.89;-43.63;-28.37;0.0;868.05;57.242;19.520107;-96.91568;;;116.12903;0 / 0;94.1;86.0;3.988;106761;2014-11-08 13:54:53:765
2.3367;2.6336;4.2713;1.0516;3.6018;9.0604;1.6108;-1.1597;-3.2952;0.0382;0.7129;-0.6487;2409.0;-15.6;101.46;4.98;10.06;-21.55;-6.62;0.0;867.91;49.664;19.520107;-96.91568;;;116.12903;0 / 0;94.1;86.0;3.988;98393;2014-11-08 13:54:54:207
-0.5171;4.367;7.7955;0.8811;4.8235;8.4928;0.316;-2.1324;-4.1449;0.0382;0.7129;-0.6487;2440.0;-18.36;106.62;3.42;11.13;-29.46;-5.92;0.0;867.91;48.352;19.520107;-96.91568;;;116.12903;0 / 0;94.1;86.0;3.988;107272;2014-11-08 13:54:54:276
-0.8523;0.182;5.6024;-0.1029;5.2523;8.2809;-1.0463;-5.2619;-0.131;0.8858;1.0773;1.3231;1837.0;-21.3;116.16;2.88;12.33;-32.94;-6.44;0.0;867.96;49.928;19.520107;-96.91568;;;116.12903;0 / 0;94.1;86.0;3.988;98894;2014-11-08 13:54:54:708
-0.8523;0.182;5.6024;-0.1029;5.2523;8.2809;-1.0463;-5.2619;-0.131;0.6371;0.431;2.0116;1837.0;-21.3;118.92;4.08;12.04;-32.38;0.71;0.0;867.96;49.928;19.520107;-96.91568;;;116.12903;0 / 0;94.1;86.0;3.988;107772;2014-11-08 13:54:54:776
0.9098;1.9441;9.5289;-0.3157;4.8591;8.5123;-0.1728;-1.4498;3.6311;0.5519;-0.606;0.4679;2573.0;-18.6;116.34;5.76;11.7;-32.59;-0.66;0.0;867.99;48.125;19.520107;-96.91568;;;116.12903;0 / 0;94.1;86.0;3.988;99394;2014-11-08 13:54:55:208
2.2505;1.9154;5.4205;-0.3449;4.5067;8.7029;2.0591;-3.3575;-1.5491;0.5519;-0.606;0.4679;2602.0;-17.7;115.44;5.94;10.16;-27.36;2.27;0.0;867.99;48.125;19.520107;-96.91568;;;116.12903;0 / 0;94.1;86.0;3.988;108282;2014-11-08 13:54:55:286
-0.3831;5.5354;10.975;1.4789;5.1264;8.2282;-1.3449;1.721;1.2337;-0.4511;1.3408;-0.7474;3073.0;-18.84;113.52;4.68;11.58;-32.31;-6.08;0.0;868.0;47.489;19.520107;-96.91568;;;116.12903;0 / 0;94.1;86.0;3.988;99894;2014-11-08 13:54:55:708
-0.3831;5.5354;10.975;1.3315;5.6;7.9396;-1.3985;-1.2042;2.9683;0.0024;-0.1943;0.5034;3073.0;-21.36;113.76;3.78;12.42;-31.52;-10.19;0.0;868.0;47.703;19.520107;-96.91568;;;116.12903;0 / 0;94.1;86.0;3.988;108785;2014-11-08 13:54:55:789
0.0287;3.4381;9.8354;0.5888;5.6496;7.9941;-1.2401;-1.7806;1.0368;-0.084;-0.7807;-0.6515;3191.0;-26.34;115.62;1.56;15.52;-35.29;-0.76;0.0;868.0;47.254;19.520107;-96.91568;;;116.12903;0 / 0;94.1;86.0;3.988;100398;2014-11-08 13:54:56:212
0.0287;3.4381;9.8354;0.5888;5.6496;7.9941;-1.2401;-1.7806;1.0368;-0.1032;-0.5873;-0.8008;3711.0;-27.84;115.92;1.2;16.35;-35.18;-4.21;0.0;868.0;47.254;19.520107;-96.91568;;;116.12903;0 / 0;94.1;86.0;3.988;109292;2014-11-08 13:54:56:296
5.6982;2.1356;5.7174;2.3935;3.6082;8.799;2.7875;-1.2332;-1.8845;0.525;0.6093;-0.1515;225.0;-32.04;118.92;2.34;15.53;-21.59;-15.22;0.0;868.0;47.256;19.520107;-96.91568;;;116.12903;0 / 0;94.1;86.0;3.988;100902;2014-11-08 13:54:56:716
4.4819;-0.0287;10.0173;3.3631;3.9469;8.3236;0.8316;-3.1807;-0.145;-0.3228;-0.2819;-0.2098;70.0;-34.02;120.9;3.18;15.88;-23.73;-22.0;0.0;867.98;47.256;19.520107;-96.91568;;;116.12903;0 / 0;94.1;86.0;3.988;110231;2014-11-08 13:54:57:235
2.6432;0.6321;7.3933;2.4429;3.0057;9.0094;0.162;-2.91;-2.2577;0.1112;-0.0892;-0.6216;70.0;-38.04;126.24;6.3;17.51;-17.85;-15.17;0.0;867.98;47.256;19.520107;-96.91568;;;116.12903;0 / 0;94.1;86.0;3.988;101549;2014-11-08 13:54:57:363
3.7637;-1.2737;8.2935;2.0063;2.6069;9.2385;1.585;-4.9341;-1.1844;-0.4404;0.4041;-0.504;21.0;-41.76;128.7;9.12;19.05;-15.42;-12.25;0.0;868.01;47.858;19.520107;-96.91568;;;116.12903;0 / 0;94.1;86.0;3.988;110752;2014-11-08 13:54:57:756
3.237;-0.0862;7.7189;2.4649;1.6199;9.3526;0.7912;-1.7923;-1.6624;-0.4404;0.4041;-0.504;20.0;-43.5;129.0;10.14;19.1;-9.51;-14.76;0.0;867.95;44.948;19.520107;-96.91568;;;116.12903;0 / 0;94.1;86.0;3.988;102067;2014-11-08 13:54:57:881
3.1891;1.2163;8.8585;2.6035;3.7641;8.6732;1.9263;-2.5095;2.2252;0.7559;0.1405;-0.0473;461.0;-48.9;127.32;10.68;22.89;-22.57;-16.71;3.1;867.93;52.716;19.520107;-96.91568;;;116.12903;0 / 0;94.1;86.0;3.988;111273;2014-11-08 13:54:58:277
3.1891;1.2163;8.8585;2.6035;3.7641;8.6732;1.9263;-2.5095;2.2252;0.42;0.4939;-0.5614;461.0;-48.9;127.32;10.68;22.89;-22.57;-16.71;3.1;867.89;52.716;19.520107;-96.91568;;;116.12903;0 / 0;94.1;86.0;3.988;102567;2014-11-08 13:54:58:381
-1.312;4.6831;8.4563;0.6742;4.7961;8.5272;-0.1983;0.1068;-2.7106;-0.5037;-0.8729;-1.6979;108.0;-50.76;123.6;9.06;25.12;-25.87;-6.71;3.1;867.94;46.159;19.520107;-96.91568;;;116.12903;0 / 0;94.1;86.0;3.988;111775;2014-11-08 13:54:58:779
0.5459;4.5681;8.2169;0.1832;5.0468;8.4064;0.5734;-1.216;-0.8503;-0.3094;-0.2135;-0.7446;37.0;-52.92;112.86;4.44;29.08;-30.97;-1.25;3.1;868.08;46.159;19.520107;-96.91568;;;116.12903;0 / 0;94.1;86.0;3.988;103668;2014-11-08 13:54:59:482
0.5459;4.5681;8.2169;0.1832;5.0468;8.4064;0.5734;-1.216;-0.8503;-0.3094;-0.2135;-0.7446;37.0;-52.92;112.86;4.44;29.08;-30.97;-1.25;3.1;868.08;46.159;19.520107;-96.91568;;;116.12903;0 / 0;94.1;86.0;3.988;112481;2014-11-08 13:54:59:485
-0.4118;4.2234;8.3797;-0.5127;5.3234;8.2201;-0.2726;-1.5405;-0.9608;-0.1839;-0.5467;-0.3943;33.0;-57.72;104.28;5.52;35.0;-32.88;3.57;3.1;867.89;47.373;19.520107;-96.91568;;;116.12903;0 / 0;94.1;86.0;3.988;104312;2014-11-08 13:55:00:126
-0.4118;4.2234;8.3797;-0.5127;5.3234;8.2201;-0.2726;-1.5405;-0.9608;-0.1839;-0.5467;-0.3943;33.0;-57.72;104.28;5.52;35.0;-32.88;3.57;3.1;867.89;47.373;19.520107;-96.91568;;;116.12903;0 / 0;94.1;86.0;3.988;113123;2014-11-08 13:55:00:127
0.2107;4.9225;8.0254;-0.6923;5.9891;7.7345;1.5733;-1.7657;-0.4944;-0.04;-1.2642;-1.0452;28.0;-60.06;96.78;8.58;41.06;-37.65;6.29;3.1;867.96;51.551;19.520107;-96.91568;;;116.12903;0 / 0;94.1;86.0;3.988;104828;2014-11-08 13:55:00:642
0.2107;4.9225;8.0254;-0.6923;5.9891;7.7345;1.5733;-1.7657;-0.4944;-0.04;-1.2642;-1.0452;28.0;-60.06;96.78;8.58;41.06;-37.65;6.29;3.1;867.96;51.551;19.520107;-96.91568;;;116.12903;0 / 0;94.1;86.0;3.988;113639;2014-11-08 13:55:00:643
-1.3503;3.7158;9.6438;-0.0622;6.2541;7.5533;-1.6329;-2.4426;-0.6101;0.445;-0.2914;0.3571;30.0;-60.54;86.28;13.14;48.1;-42.88;-1.07;3.1;867.97;53.122;19.520107;-96.91568;;;116.12903;0 / 0;94.1;86.0;3.988;105335;2014-11-08 13:55:01:149
-1.3503;3.7158;9.6438;-0.0622;6.2541;7.5533;-1.6329;-2.4426;-0.6101;0.445;-0.2914;0.3571;30.0;-60.54;86.28;13.14;48.1;-42.88;-1.07;3.1;867.97;53.122;19.520107;-96.91568;;;116.12903;0 / 0;94.1;86.0;3.988;114146;2014-11-08 13:55:01:150
-1.0151;5.0949;8.3606;-2.4368;5.6706;7.6208;1.9484;-0.8343;1.9081;0.3039;-0.8699;-0.4872;32.0;-60.06;80.4;16.14;48.72;-35.33;17.73;3.1;867.93;66.184;19.520107;-96.91568;;;116.12903;0 / 0;94.1;86.0;3.988;105837;2014-11-08 13:55:01:651
-1.0151;5.0949;8.3606;-2.3664;5.6646;7.6474;1.7631;-0.6559;0.378;0.3039;-0.8699;-0.4872;32.0;-60.06;80.4;16.14;48.72;-35.33;17.73;3.1;867.93;66.184;19.520107;-96.91568;;;116.12903;0 / 0;94.1;86.0;3.988;114648;2014-11-08 13:55:01:652
1.2833;4.8554;6.8761;-0.3022;5.8507;7.8644;1.9111;-0.7942;-0.5668;-0.1341;-0.4753;-1.1723;26.0;-59.58;76.62;19.92;50.67;-36.63;2.2;3.1;868.03;58.63;19.520107;-96.91568;;;116.12903;0 / 0;94.1;86.0;3.988;106338;2014-11-08 13:55:02:152
1.2833;4.8554;6.8761;-0.3022;5.8507;7.8644;1.9111;-0.7942;-0.5668;-0.1341;-0.4753;-1.1723;26.0;-59.58;76.62;19.92;50.67;-36.63;2.2;3.1;868.03;58.63;19.520107;-96.91568;;;116.12903;0 / 0;94.1;86.0;3.988;115149;2014-11-08 13:55:02:153
0.3639;4.2713;7.7476;0.0603;5.6645;8.005;0.6197;-1.173;-0.267;-0.0293;0.3149;-0.3793;26.0;-54.48;69.84;24.48;51.23;-35.28;-0.43;3.1;867.95;49.639;19.520107;-96.91568;;;116.12903;0 / 0;94.1;86.0;3.988;106838;2014-11-08 13:55:02:652
0.3639;4.2713;7.7476;0.0603;5.6645;8.005;0.6197;-1.173;-0.267;-0.0293;0.3149;-0.3793;26.0;-54.48;69.84;24.48;51.23;-35.28;-0.43;3.1;867.95;49.639;19.520107;-96.91568;;;116.12903;0 / 0;94.1;86.0;3.988;115652;2014-11-08 13:55:02:656
-0.7087;4.4245;7.853;-0.4855;4.96;8.4459;0.0929;-0.7941;-0.8036;0.1313;-0.2498;-0.2089;32.0;-47.46;65.76;25.44;46.64;-30.38;3.29;3.1;867.91;41.612;19.520107;-96.91568;;;116.12903;0 / 0;94.1;86.0;3.988;107347;2014-11-08 13:55:03:161
-0.7087;4.4245;7.853;-0.4855;4.96;8.4459;0.0929;-0.7941;-0.8036;0.1313;-0.2498;-0.2089;32.0;-47.46;65.76;25.44;46.64;-30.38;3.29;3.1;867.91;41.612;19.520107;-96.91568;;;116.12903;0 / 0;94.1;86.0;3.988;116177;2014-11-08 13:55:03:181
-0.3256;4.2425;7.8147;-0.0615;4.5674;8.6779;0.6457;-0.5164;-1.7251;-0.1271;-0.0919;0.1243;30.0;-43.92;65.22;24.36;44.27;-29.23;1.89;3.1;868.0;42.113;19.520107;-96.91568;;;116.12903;0 / 0;94.1;86.0;3.988;107866;2014-11-08 13:55:03:680
-0.3256;4.2425;7.8147;-0.0615;4.5674;8.6779;0.6457;-0.5164;-1.7251;-0.1271;-0.0919;0.1243;30.0;-43.92;65.22;24.36;44.27;-29.23;1.89;3.1;868.0;42.113;19.520107;-96.91568;;;116.12903;0 / 0;94.1;86.0;3.988;116677;2014-11-08 13:55:03:681
-0.9673;4.9416;6.9815;-1.0405;4.8151;8.4795;-0.2524;0.251;-0.5116;-0.0299;-1.3237;-0.3143;28.0;-41.52;64.56;23.82;42.42;-29.41;7.0;3.1;867.94;43.357;19.520107;-96.91568;;;116.12903;0 / 0;94.1;86.0;3.988;108366;2014-11-08 13:55:04:180
-0.9673;4.9416;6.9815;-1.0405;4.8151;8.4795;-0.2524;0.251;-0.5116;-0.0299;-1.3237;-0.3143;28.0;-41.52;64.56;23.82;42.42;-29.41;7.0;3.1;867.94;43.357;19.520107;-96.91568;;;116.12903;0 / 0;94.1;86.0;3.988;117177;2014-11-08 13:55:04:181
0.4214;4.1946;6.3973;-0.1571;4.6457;8.635;0.3007;-0.2595;-1.2034;-0.2364;3.4441;-0.19;29.0;-40.74;64.5;24.0;42.13;-28.92;0.39;3.1;867.93;43.99;19.520107;-96.91568;;;116.12903;0 / 0;94.1;86.0;3.988;108866;2014-11-08 13:55:04:680
0.4214;4.1946;6.3973;-0.1571;4.6457;8.635;0.3007;-0.2595;-1.2034;-0.2364;3.4441;-0.19;29.0;-40.74;64.5;24.0;42.13;-28.92;0.39;3.1;867.93;43.99;19.520107;-96.91568;;;116.12903;0 / 0;94.1;86.0;3.988;117677;2014-11-08 13:55:04:681
-2.5953;2.5283;9.481;-2.6627;1.9493;9.2347;-0.239;1.1345;0.3899;-0.7566;-0.5101;-0.0962;41.0;-38.16;67.5;19.08;27.15;-11.46;16.08;3.1;867.96;44.58;19.520107;-96.91568;;;116.12903;0 / 0;94.1;86.0;3.988;109748;2014-11-08 13:55:05:562
-2.5953;2.5283;9.481;-2.6627;1.9493;9.2347;-0.239;1.1345;0.3899;-0.7566;-0.5101;-0.0962;41.0;-38.16;67.5;19.08;27.15;-11.46;16.08;3.1;867.96;44.58;19.520107;-96.91568;;;116.12903;0 / 0;94.1;86.0;3.988;118559;2014-11-08 13:55:05:563
-9.2608;-1.312;4.2138;-7.9657;-0.0971;5.7191;-1.2951;-1.215;-1.5054;-1.5235;0.0589;0.8476;94.0;-32.58;75.12;12.3;21.56;-11.74;25.43;3.1;868.01;43.245;19.520107;-96.91568;;;116.12903;0 / 0;94.1;86.0;3.988;110256;2014-11-08 13:55:06:070
-9.2608;-1.312;4.2138;-7.9657;-0.0971;5.7191;-1.2951;-1.215;-1.5054;-1.5235;0.0589;0.8476;94.0;-32.58;75.12;12.3;21.56;-11.74;25.43;3.1;868.01;43.245;19.520107;-96.91568;;;116.12903;0 / 0;94.1;86.0;3.988;119066;2014-11-08 13:55:06:070
-9.5672;-3.4572;-1.3886;-9.2939;-3.0752;-0.5809;-0.2734;-0.382;-0.8078;-0.4847;0.0855;-2.044;2.0;-20.58;92.7;6.54;359.45;7.91;73.94;0.0;867.86;44.178;19.520107;-96.91568;;;116.12903;0 / 0;94.1;86.0;3.988;110756;2014-11-08 13:55:06:570
-9.5672;-3.4572;-1.3886;-9.2939;-3.0752;-0.5809;-0.2734;-0.382;-0.8078;-0.4847;0.0855;-2.044;2.0;-20.58;92.7;6.54;359.45;7.91;73.94;0.0;867.86;44.178;19.520107;-96.91568;;;116.12903;0 / 0;94.1;86.0;3.988;119568;2014-11-08 13:55:06:572
-5.5929;-7.6614;-0.1915;-8.2417;-5.2463;0.8488;2.6489;-2.4152;-1.0404;-0.3326;-0.4823;1.2431;0.0;-17.1;114.48;5.64;357.17;31.26;87.53;0.0;867.92;59.665;19.520107;-96.91568;;;116.12903;0 / 0;94.1;86.0;3.988;111260;2014-11-08 13:55:07:074
-5.861;-7.4891;-0.7949;-8.3958;-5.0339;0.5842;2.5348;-2.4552;-1.3791;0.0351;-0.6545;-0.0449;10.0;-17.28;116.04;5.58;357.75;32.34;84.12;0.0;867.87;59.665;19.520107;-96.91568;;;116.12903;0 / 0;94.1;86.0;3.988;120215;2014-11-08 13:55:07:219
-5.7174;-7.0773;0.8236;-8.3411;-5.1527;0.216;2.6237;-1.9246;0.6076;0.2544;0.722;-0.6958;2.0;-20.88;121.86;5.34;357.98;32.66;87.35;0.0;867.9;67.024;19.520107;-96.91568;;;116.12903;0 / 0;94.1;86.0;3.988;111786;2014-11-08 13:55:07:600
-5.9089;-7.4124;0.7087;-8.2745;-5.2165;0.7005;2.3656;-2.196;0.0081;0.1585;0.4743;-1.0366;0.0;-21.42;121.8;4.74;357.78;31.7;88.52;0.0;867.9;64.986;19.520107;-96.91568;;;116.12903;0 / 0;94.1;86.0;3.988;120719;2014-11-08 13:55:07:723
-3.1603;-8.8969;0.3256;-7.0707;-6.7246;0.9773;3.307;-1.8083;-0.69;-0.0263;-0.2388;-0.8167;0.0;-21.06;120.48;3.84;359.39;43.29;82.13;0.0;867.79;66.731;19.520107;-96.91568;;;116.12903;0 / 0;94.1;86.0;3.988;112288;2014-11-08 13:55:08:102
-1.4365;-9.73;0.4501;-6.0038;-7.7074;0.8489;3.2456;-1.132;-0.0924;-0.0043;-0.1307;-0.1973;0.0;-21.72;120.84;3.78;359.45;51.81;81.95;0.0;867.79;66.731;19.520107;-96.91568;;;116.12903;0 / 0;94.1;86.0;3.988;121230;2014-11-08 13:55:08:234
-1.0151;-9.5385;0.5746;-5.358;-8.0754;1.5002;3.8161;-1.4823;-1.1458;0.0886;-0.1396;-0.1561;0.0;-23.46;122.1;3.96;1.52;55.43;74.36;0.0;867.87;65.618;19.520107;-96.91568;;;116.12903;0 / 0;94.1;86.0;3.988;112791;2014-11-08 13:55:08:605
-0.7374;-9.2033;0.6033;-5.2892;-8.1173;1.518;4.6284;-1.1914;-0.9242;0.0202;-0.0806;-0.1011;0.0;-25.08;123.06;4.08;1.95;55.87;73.99;0.0;867.88;65.369;19.520107;-96.91568;;;116.12903;0 / 0;94.1;86.0;3.988;121730;2014-11-08 13:55:08:734
2.2601;-10.0556;-0.4501;-3.3467;-9.1781;0.8563;6.0148;-2.235;-1.2436;0.1014;-0.1072;-0.0406;0.0;-30.48;125.34;4.98;0.85;56.38;77.91;0.0;867.83;72.831;19.520107;-96.91568;;;116.12903;0 / 0;94.1;86.0;3.988;113326;2014-11-08 13:55:09:140
1.312;-9.7205;-0.498;-3.3975;-9.1545;0.9073;4.834;-0.5181;-1.2521;-0.0486;0.0895;0.0693;0.0;-32.16;125.94;5.46;2.61;68.99;75.05;0.0;867.82;72.831;19.520107;-96.91568;;;116.12903;0 / 0;94.1;86.0;3.988;122254;2014-11-08 13:55:09:258
1.4174;-9.7396;-0.4118;-3.3598;-9.184;0.7319;4.7485;-0.7376;-1.0671;-0.0293;-0.1316;0.0507;0.0;-36.3;127.08;6.36;1.31;69.47;77.71;0.0;867.87;68.863;19.520107;-96.91568;;;116.12903;0 / 0;94.1;86.0;3.988;113849;2014-11-08 13:55:09:663
1.4174;-9.7396;-0.4118;-3.4345;-9.1618;0.6608;4.8806;-0.5395;-1.1396;-0.0293;-0.1316;0.0507;0.0;-36.3;127.08;6.36;1.31;69.47;77.71;0.0;867.87;68.863;19.520107;-96.91568;;;116.12903;0 / 0;94.1;86.0;3.988;122754;2014-11-08 13:55:09:758
-0.2203;-9.7683;1.1013;-3.9138;-8.8442;1.6229;3.7988;-1.0391;-0.397;0.3454;0.1811;0.8693;0.0;-39.84;127.56;6.96;358.42;67.6;83.43;0.0;867.85;61.042;19.520107;-96.91568;;;116.12903;0 / 0;94.1;86.0;3.988;114355;2014-11-08 13:55:10:169
0.929;-9.3278;0.6608;-4.4768;-8.3545;2.5159;4.314;-0.1688;-1.405;1.2144;-0.1878;0.0128;0.0;-39.6;126.9;6.36;6.18;64.4;67.48;0.0;867.85;61.042;19.520107;-96.91568;;;116.12903;0 / 0;94.1;86.0;3.988;123276;2014-11-08 13:55:10:280
1.1875;-14.0875;2.2793;-4.0747;-7.3289;5.0847;7.6948;-2.5544;-2.1542;-0.128;0.7501;-0.0082;0.0;-39.54;124.8;5.16;12.84;52.37;47.52;0.0;867.94;61.34;19.520107;-96.91568;;;116.12903;0 / 0;94.1;86.0;3.988;114865;2014-11-08 13:55:10:679
0.996;-10.228;-1.5036;-4.0747;-7.3289;5.0847;7.6948;-2.5544;-2.1542;-0.6136;1.4459;-0.6038;0.0;-39.42;124.5;4.8;14.69;48.36;38.71;0.0;867.86;61.34;19.520107;-96.91568;;;116.12903;0 / 0;94.1;86.0;3.988;123776;2014-11-08 13:55:10:780
1.1013;-9.9311;-1.3216;-3.7204;-9.0346;0.839;4.4483;-0.6954;-2.764;-0.4756;0.5055;-0.4337;0.0;-36.9;126.54;5.52;1.56;67.11;77.29;0.0;867.87;54.421;19.520107;-96.91568;;;116.12903;0 / 0;94.1;86.0;3.988;115365;2014-11-08 13:55:11:179
1.1013;-9.9311;-1.3216;-3.6245;-9.0918;-0.6095;4.247;-0.7914;-0.4535;-0.5266;0.5412;-0.2193;10.0;-36.12;128.34;6.78;350.84;67.99;99.55;0.0;867.99;49.763;19.520107;-96.91568;;;116.12903;0 / 0;94.1;86.0;3.988;124282;2014-11-08 13:55:11:286
2.2984;-8.7532;0.6416;-3.2751;-9.2415;0.1967;5.5736;0.4883;0.445;0.2169;0.0831;-0.0809;0.0;-31.08;130.56;8.16;355.23;70.45;86.56;0.0;868.03;60.979;19.520107;-96.91568;;;116.12903;0 / 0;94.1;86.0;3.988;115865;2014-11-08 13:55:11:679
0.5555;-7.6231;1.5514;-2.6634;-9.3006;1.6049;3.2189;1.6774;-0.0534;-1.6997;-0.7025;0.7779;0.0;-29.52;131.16;8.76;6.31;71.51;58.93;0.0;868.03;60.979;19.520107;-96.91568;;;116.12903;0 / 0;94.1;86.0;3.988;124784;2014-11-08 13:55:11:788
3.122;-9.8833;-0.0479;-1.7907;-9.4691;1.8166;4.9127;-0.4142;-1.8644;0.3955;-0.1521;-0.0342;0.0;-26.7;130.56;9.78;11.64;74.92;44.59;0.0;867.89;55.029;19.520107;-96.91568;;;116.12903;0 / 0;94.1;86.0;3.988;116373;2014-11-08 13:55:12:187
1.4653;-9.2129;-0.8236;-2.1983;-9.5299;0.7205;3.6636;0.317;-1.5441;0.3955;-0.1521;-0.0342;0.0;-26.7;130.56;9.78;11.64;74.92;44.59;0.0;867.89;55.029;19.520107;-96.91568;;;116.12903;0 / 0;94.1;86.0;3.988;125284;2014-11-08 13:55:12:288
1.8196;-9.4906;-0.9864;-3.0547;-9.318;0.1206;4.8743;-0.1726;-1.107;-0.0626;0.0486;-0.1026;0.0;-25.92;130.92;11.7;352.09;73.37;83.19;0.0;867.92;56.189;19.520107;-96.91568;;;116.12903;0 / 0;94.1;86.0;3.988;116873;2014-11-08 13:55:12:687
1.9058;-9.4427;-0.8045;-2.9903;-9.3396;0.0375;4.896;-0.1032;-0.842;-0.1655;-0.1768;0.011;0.0;-25.8;132.18;13.08;349.77;71.84;87.74;0.0;867.92;61.78;19.520107;-96.91568;;;116.12903;0 / 0;94.1;86.0;3.988;125793;2014-11-08 13:55:12:797
1.494;-9.7588;-0.431;-2.824;-9.3503;0.8754;4.318;-0.4084;-1.3063;-0.0174;0.1668;-0.0034;0.0;-25.32;133.44;14.88;350.64;72.44;80.92;0.0;867.97;62.196;19.520107;-96.91568;;;116.12903;0 / 0;94.1;86.0;3.988;117385;2014-11-08 13:55:13:199
1.494;-9.7588;-0.431;-2.824;-9.3503;0.8754;4.318;-0.4084;-1.3063;0.051;-0.1689;0.1042;1.0;-25.32;133.44;14.88;350.64;72.44;80.92;0.0;867.81;62.196;19.520107;-96.91568;;;116.12903;0 / 0;94.1;86.0;3.988;126293;2014-11-08 13:55:13:297
2.2793;-9.6247;-1.0247;-2.3674;-9.2535;2.2221;4.6467;-0.3712;-3.2468;0.0822;0.073;-0.0211;0.0;-25.08;133.26;15.06;356.58;72.26;67.04;0.0;867.9;72.267;19.520107;-96.91568;;;116.12903;0 / 0;94.1;86.0;3.988;117885;2014-11-08 13:55:13:699
1.9728;-9.3948;-0.68;-2.1567;-9.2697;2.3646;4.1295;-0.1251;-3.0445;0.0348;-0.5174;-0.0076;0.0;-25.02;133.08;14.64;4.97;70.66;46.81;0.0;867.9;72.267;19.520107;-96.91568;;;116.12903;0 / 0;94.1;86.0;3.988;126798;2014-11-08 13:55:13:802
1.5131;-9.7205;-0.8236;-2.1933;-9.1836;2.65;3.7064;-0.5369;-3.4736;0.0556;0.3558;0.0568;0.0;-25.62;132.9;13.62;7.64;69.19;42.25;0.0;867.99;73.608;19.520107;-96.91568;;;116.12903;0 / 0;94.1;86.0;3.988;118389;2014-11-08 13:55:14:203
1.7047;-9.5481;-0.5267;-2.1852;-9.2212;2.5227;3.8899;-0.3268;-3.0494;0.0556;0.3558;0.0568;0.0;-25.62;132.9;13.62;7.64;69.19;42.25;0.0;867.99;59.398;19.520107;-96.91568;;;116.12903;0 / 0;94.1;86.0;3.988;127298;2014-11-08 13:55:14:302
1.2641;-9.5864;-0.3831;-1.695;-9.0766;3.3034;2.9592;-0.5098;-3.6864;0.0437;-0.4074;-0.0449;0.0;-25.38;132.24;12.96;11.28;69.0;32.75;0.0;867.93;57.363;19.520107;-96.91568;;;116.12903;0 / 0;94.1;86.0;3.988;118889;2014-11-08 13:55:14:703
2.3176;-9.5672;-0.7374;-1.6312;-9.0694;3.3549;3.9488;-0.4978;-4.0923;0.015;-0.2062;0.0238;0.0;-25.44;132.42;12.96;12.89;67.75;27.16;0.0;867.98;57.363;19.520107;-96.91568;;;116.12903;0 / 0;94.1;86.0;3.988;127817;2014-11-08 13:55:14:821
1.992;-9.5481;-0.4884;-0.1025;-9.0387;3.803;2.0945;-0.5094;-4.2914;-0.0507;-0.014;0.0174;0.0;-25.32;132.36;13.26;19.1;67.07;7.82;0.0;867.99;57.934;19.520107;-96.91568;;;116.12903;0 / 0;94.1;86.0;3.988;119395;2014-11-08 13:55:15:209
1.7621;-9.6151;-0.8715;0.4031;-8.9688;3.9456;1.359;-0.6463;-4.8171;-0.1081;0.1032;-0.0247;0.0;-25.5;132.42;13.14;21.12;67.17;1.54;0.0;867.87;57.934;19.520107;-96.91568;;;116.12903;0 / 0;94.1;86.0;3.988;128358;2014-11-08 13:55:15:362
2.059;-9.7779;-0.7278;0.3212;-9.0537;3.7548;1.7378;-0.7242;-4.4826;0.1173;0.099;0.0501;0.0;-26.1;133.2;13.5;23.5;66.49;-6.57;0.0;868.08;71.243;19.520107;-96.91568;;;116.12903;0 / 0;94.1;86.0;3.988;119896;2014-11-08 13:55:15:710
2.3846;-9.2512;-0.7374;0.8266;-8.934;3.9587;1.558;-0.3172;-4.6961;0.1103;0.329;0.0018;1.0;-26.22;133.26;13.8;23.63;67.4;-4.89;0.0;867.96;74.689;19.520107;-96.91568;;;116.12903;0 / 0;94.1;86.0;3.988;128864;2014-11-08 13:55:15:868
2.3176;-9.2703;-0.1628;1.6665;-8.6698;4.2693;0.6511;-0.6005;-4.4321;0.1836;-0.0086;0.1035;0.0;-25.56;133.08;13.5;24.16;62.14;-21.32;0.0;867.98;67.486;19.520107;-96.91568;;;116.12903;0 / 0;94.1;86.0;3.988;120406;2014-11-08 13:55:16:220
2.241;-9.3182;0.1915;2.2873;-8.519;4.2856;-0.0464;-0.7993;-4.094;0.0773;0.0241;0.0733;0.0;-25.32;133.14;13.32;23.24;60.31;-28.09;0.0;867.98;67.486;19.520107;-96.91568;;;116.12903;0 / 0;94.1;86.0;3.988;129365;2014-11-08 13:55:16:369
2.4708;-9.73;-0.431;1.6506;-8.5958;4.4226;0.8203;-1.1343;-4.8535;0.1723;0.409;0.0461;0.0;-24.66;132.3;12.72;22.79;61.23;-20.47;0.0;867.88;61.469;19.520107;-96.91568;;;116.12903;0 / 0;94.1;86.0;3.988;120909;2014-11-08 13:55:16:723
1.4748;-9.4236;0.0287;2.1682;-8.7041;3.9634;-0.6934;-0.7195;-3.9347;-0.0556;-0.2633;-0.5339;0.0;-24.18;132.3;12.66;24.21;62.57;-28.68;0.0;868.02;62.649;19.520107;-96.91568;;;116.12903;0 / 0;94.1;86.0;3.988;129866;2014-11-08 13:55:16:870
1.7526;-9.3182;-0.9002;2.1314;-8.6532;4.0926;-0.3788;-0.665;-4.9928;0.3891;0.1228;0.117;0.0;-24.12;132.12;12.66;22.79;59.57;-33.72;0.0;867.93;70.377;19.520107;-96.91568;;;116.12903;0 / 0;94.1;86.0;3.988;121416;2014-11-08 13:55:17:230
1.3599;-9.6726;-1.4078;2.1178;-8.6001;4.21;-0.7579;-1.0725;-5.6178;-0.4414;-0.4975;-0.1912;0.0;-24.42;132.3;12.9;23.59;61.93;-27.51;0.0;867.93;70.377;19.520107;-96.91568;;;116.12903;0 / 0;94.1;86.0;3.988;130367;2014-11-08 13:55:17:371
2.1452;-9.663;-0.2586;1.1225;-8.8987;3.9653;1.0227;-0.7643;-4.2239;-0.0779;-0.2107;0.0266;0.0;-25.14;132.3;12.66;25.82;65.04;-22.32;0.0;867.95;54.396;19.520107;-96.91568;;;116.12903;0 / 0;94.1;86.0;3.988;121923;2014-11-08 13:55:17:737
2.0686;-9.5193;-0.4501;1.5296;-8.8194;4.0062;0.539;-0.7;-4.4563;-0.0199;-0.1179;0.0086;0.0;-25.5;132.18;12.54;24.47;65.15;-15.81;0.0;867.95;54.396;19.520107;-96.91568;;;116.12903;0 / 0;94.1;86.0;3.988;130885;2014-11-08 13:55:17:889
1.9441;-9.5672;-0.5746;2.0106;-8.7686;3.9038;-0.0665;-0.7987;-4.4784;-0.0699;-0.0434;0.0159;0.0;-25.98;132.36;12.24;25.66;64.07;-20.9;0.0;867.93;63.491;19.520107;-96.91568;;;116.12903;0 / 0;94.1;86.0;3.988;122423;2014-11-08 13:55:18:237
1.8866;-9.6534;-0.68;2.0757;-8.8043;3.7876;-0.1316;-0.8204;-4.4771;-0.0388;-0.0626;0.0076;0.0;-26.64;132.24;11.94;27.36;63.51;-28.15;0.0;867.89;73.489;19.520107;-96.91568;;;116.12903;0 / 0;94.1;86.0;3.988;131407;2014-11-08 13:55:18:411
1.8675;-9.6534;-0.6416;2.0281;-8.8619;3.6775;-0.0841;-0.7724;-4.482;-0.004;-0.0733;0.0354;0.0;-26.64;132.3;12.12;28.12;64.23;-28.97;0.0;867.86;70.977;19.520107;-96.91568;;;116.12903;0 / 0;94.1;86.0;3.988;122923;2014-11-08 13:55:18:737
1.9728;-9.596;-0.8236;1.9999;-8.8657;3.6838;-0.1707;-0.7781;-4.3638;0.0156;-0.0434;0.004;0.0;-26.64;132.36;12.3;28.49;64.64;-28.88;0.0;868.04;70.977;19.520107;-96.91568;;;116.12903;0 / 0;94.1;86.0;3.988;131907;2014-11-08 13:55:18:911
1.8962;-9.6151;-0.7183;1.8504;-8.8876;3.7091;0.0458;-0.7276;-4.4274;-0.0073;0.0189;0.0064;0.0;-26.94;132.42;12.48;28.37;64.86;-27.06;0.0;867.92;69.735;19.520107;-96.91568;;;116.12903;0 / 0;94.1;86.0;3.988;123430;2014-11-08 13:55:19:244
1.8579;-9.6055;-0.6033;1.8493;-8.8846;3.7167;0.0564;-0.7592;-4.4541;-0.0092;-0.0275;0.015;0.0;-27.0;132.42;12.66;28.35;64.96;-26.45;0.0;867.83;69.735;19.520166;-96.915794;;;116.12903;0 / 0;94.1;86.0;3.988;132418;2014-11-08 13:55:19:422
2.0016;-9.5672;-0.6991;1.6146;-8.8913;3.809;0.2433;-0.7334;-4.4315;0.0177;-0.0199;0.0055;0.0;-26.58;132.36;12.54;27.91;65.31;-22.87;0.0;868.03;63.739;19.520166;-96.915794;;;116.12903;0 / 0;94.1;86.0;3.988;123940;2014-11-08 13:55:19:754
1.7717;-9.596;-0.565;1.5789;-8.8857;3.8369;0.2024;-0.7869;-4.3158;-0.007;-0.0076;0.0278;0.0;-26.46;132.3;12.12;26.68;64.97;-22.37;0.0;867.95;46.604;19.520166;-96.915794;;;116.12903;0 / 0;94.1;86.0;3.988;132943;2014-11-08 13:55:19:947
1.8196;-9.6726;-0.6033;0.9909;-8.9718;3.8334;0.8287;-0.7007;-4.4367;-0.0272;-0.0281;0.0177;0.0;-26.4;132.6;12.3;25.77;66.19;-14.49;0.0;867.79;58.181;19.520166;-96.915794;;;116.12903;0 / 0;94.1;86.0;3.988;124444;2014-11-08 13:55:20:258
1.7909;-9.6151;-0.5746;0.884;-8.9844;3.83;0.9069;-0.6307;-4.4046;-0.0098;-0.026;0.0104;0.0;-26.4;132.6;12.3;25.77;66.19;-14.49;0.0;867.79;58.181;19.520166;-96.915794;;;116.12903;0 / 0;94.1;86.0;3.988;133443;2014-11-08 13:55:20:447
1.8866;-9.6247;-0.5842;0.7037;-8.9956;3.8411;1.1255;-0.6099;-4.387;-0.0174;-0.0199;0.0125;0.0;-26.1;132.36;11.76;25.33;66.45;-11.36;0.0;867.91;58.553;19.520166;-96.915794;;;116.12903;0 / 0;94.1;86.0;3.988;124946;2014-11-08 13:55:20:760
1.9537;-9.596;-0.6225;0.81;-8.9685;3.8834;1.1437;-0.6275;-4.5059;-0.0067;0.0449;0.0055;0.0;-26.58;132.36;11.82;26.04;66.14;-11.78;0.0;867.98;67.15;19.520166;-96.915794;;;116.12903;0 / 0;94.1;86.0;3.988;133963;2014-11-08 13:55:20:967
1.7621;-9.6247;-0.5746;0.758;-8.9658;3.9;1.0042;-0.6589;-4.4746;-0.0189;-0.0464;0.0263;0.0;-26.34;132.3;11.7;25.37;65.8;-13.49;0.0;867.94;67.15;19.520166;-96.915794;;;116.12903;0 / 0;94.1;86.0;3.988;125457;2014-11-08 13:55:21:271
2.0877;-9.6726;-0.6512;0.307;-9.0198;3.8365;1.6275;-0.6144;-4.5356;-0.0089;0.022;0.007;0.0;-26.52;132.24;11.82;25.08;66.72;-6.62;0.0;867.91;72.367;19.520166;-96.915794;;;116.12903;0 / 0;94.1;86.0;3.988;134482;2014-11-08 13:55:21:486
1.6951;-9.6822;-0.4788;0.5399;-8.9977;3.8626;1.1552;-0.6844;-4.3415;-0.0257;-0.0272;0.0125;0.0;-26.76;132.12;12.0;25.35;66.33;-8.63;0.0;867.93;65.338;19.520166;-96.915794;;;116.12903;0 / 0;94.1;86.0;3.988;125957;2014-11-08 13:55:21:771
1.9249;-9.6247;-0.6033;-0.0031;-9.0769;3.7121;1.928;-0.5478;-4.3155;-0.0247;-0.0834;-0.0345;0.0;-26.58;132.18;12.18;24.65;67.15;-4.04;0.0;867.98;65.338;19.520166;-96.915794;;;116.12903;0 / 0;94.1;86.0;3.988;134986;2014-11-08 13:55:21:990
1.9441;-9.6055;-0.7374;0.0177;-9.0722;3.7235;1.8977;-0.5237;-4.4992;-6.0E-4;-0.0925;0.011;0.0;-27.0;131.82;12.18;24.85;67.23;-4.5;0.0;867.87;63.245;19.520166;-96.915794;;;116.12903;0 / 0;94.1;86.0;3.988;126473;2014-11-08 13:55:22:287
1.9058;-9.5864;-0.7183;0.0339;-9.0745;3.718;1.9581;-0.5981;-4.4266;-0.014;-0.0168;0.0217;0.0;-26.94;131.76;12.24;23.99;67.72;-0.52;0.0;867.99;53.376;19.520166;-96.915794;;;116.12903;0 / 0;94.1;86.0;3.988;135486;2014-11-08 13:55:22:490
1.743;-9.663;-0.5746;0.1944;-9.0723;3.7183;1.5486;-0.5907;-4.2929;-0.0412;0.0015;-9.0E-4;0.0;-27.0;131.94;12.36;24.53;67.62;-2.52;0.0;868.03;69.458;19.520166;-96.915794;;;116.12903;0 / 0;94.1;86.0;3.988;126980;2014-11-08 13:55:22:794
1.6759;-9.6055;-0.747;0.0654;-9.1;3.6547;1.6488;-0.4864;-4.3442;-0.0211;-0.0339;0.0061;0.0;-27.3;131.88;12.3;24.44;68.12;-1.03;0.0;868.03;69.458;19.520166;-96.915794;;;116.12903;0 / 0;94.1;86.0;3.988;135999;2014-11-08 13:55:23:003
2.1644;-9.5577;-0.8045;-0.7204;-9.2075;3.2974;2.789;-0.4076;-4.1976;-0.0324;9.0E-4;0.0058;0.0;-27.36;132.12;12.36;21.06;69.87;12.32;0.0;867.92;61.207;19.520166;-96.915794;;;116.12903;0 / 0;94.1;86.0;3.988;127490;2014-11-08 13:55:23:304
2.0016;-9.6438;-0.8045;-0.6775;-9.2041;3.3161;2.5546;-0.4015;-4.044;-0.0269;-0.004;0.0312;0.0;-27.36;132.3;12.66;20.86;69.81;11.55;0.0;867.99;61.207;19.520166;-96.915794;;;116.12903;0 / 0;94.1;86.0;3.988;136499;2014-11-08 13:55:23:503
2.1069;-9.5289;-0.8715;-0.3514;-9.1795;3.4327;2.4583;-0.3494;-4.3042;-0.1029;0.0742;-0.0293;1.0;-27.42;132.24;12.6;22.37;69.09;6.11;0.0;867.91;40.51;19.520166;-96.915794;;;116.12903;0 / 0;94.1;86.0;3.988;128002;2014-11-08 13:55:23:816
2.1165;-9.6247;-0.7374;-0.6298;-9.1959;3.3479;2.392;-0.3617;-4.0087;-0.0229;-0.1026;0.0541;0.0;-27.48;132.6;12.78;21.0;69.67;10.65;0.0;868.01;42.834;19.520166;-96.915794;;;116.12903;0 / 0;94.1;86.0;3.988;137012;2014-11-08 13:55:24:016
1.9537;-9.6343;-0.814;-0.1481;-9.1092;3.6293;2.1018;-0.5251;-4.4433;-9.0E-4;-0.0342;-6.0E-4;0.0;-27.42;132.78;13.02;21.87;69.02;7.06;0.0;867.97;60.511;19.520166;-96.915794;;;116.12903;0 / 0;94.1;86.0;3.988;128508;2014-11-08 13:55:24:322
1.8292;-9.6247;-0.7087;-0.0546;-9.1086;3.6334;1.8838;-0.5161;-4.3421;-0.029;-0.1026;-0.0119;0.0;-27.48;133.44;13.2;23.47;68.25;0.86;0.0;867.94;60.511;19.520166;-96.915794;;;116.12903;0 / 0;94.1;86.0;3.988;137665;2014-11-08 13:55:24:669
1.7238;-9.6534;-0.498;0.0625;-9.0757;3.7145;1.6613;-0.5777;-4.2125;-0.0513;-0.0706;-0.0043;0.0;-27.48;133.86;13.44;23.47;68.25;0.86;0.0;867.94;64.885;19.520166;-96.915794;;;116.12903;0 / 0;94.1;86.0;3.988;129009;2014-11-08 13:55:24:823
2.0494;-9.5864;-0.8045;-0.0551;-9.0699;3.7288;1.9513;-0.4877;-4.7344;0.0015;0.0354;0.0208;0.0;-27.18;133.32;13.5;22.75;67.65;0.85;0.0;867.97;67.147;19.520166;-96.915794;;;116.12903;0 / 0;94.1;86.0;3.988;138165;2014-11-08 13:55:25:169
1.9632;-9.6151;-0.6033;-0.0253;-9.082;3.6996;2.0747;-0.5044;-4.504;0.0055;-0.0049;-0.0049;0.0;-27.18;133.32;13.5;22.75;67.65;0.85;0.0;867.95;67.147;19.520166;-96.915794;;;116.12903;0 / 0;94.1;86.0;3.988;129510;2014-11-08 13:55:25:324
1.8579;-9.663;-0.498;0.7709;-8.9477;3.939;1.087;-0.7153;-4.437;-0.0327;-0.259;0.0211;0.0;-26.94;132.48;13.26;25.05;66.02;-9.13;0.0;867.96;48.991;19.520166;-96.915794;;;116.12903;0 / 0;94.1;86.0;3.988;138678;2014-11-08 13:55:25:682
2.0494;-9.5577;-1.0151;0.7862;-8.9366;3.961;1.2632;-0.6211;-4.9761;-0.0492;-0.3641;0.0467;0.0;-27.06;132.36;12.96;25.37;65.68;-11.23;0.0;867.91;47.698;19.520166;-96.915794;;;116.12903;0 / 0;94.1;86.0;3.988;130010;2014-11-08 13:55:25:824
1.7909;-9.7013;-0.9577;1.3568;-8.9266;3.827;0.3191;-0.7364;-4.8422;-0.1454;-0.1655;0.0049;0.0;-27.3;132.6;12.84;27.18;65.54;-19.52;0.0;867.92;49.101;19.520166;-96.915794;;;116.12903;0 / 0;94.1;86.0;3.988;139179;2014-11-08 13:55:26:183
1.7334;-9.5385;-1.2354;0.1518;-9.2287;3.3134;1.5816;-0.3098;-4.5488;0.0367;-0.2523;-0.0113;0.0;-27.6;133.08;12.9;27.03;70.23;-2.62;0.0;867.92;49.101;19.520166;-96.915794;;;116.12903;0 / 0;94.1;86.0;3.988;130535;2014-11-08 13:55:26:349
1.9441;-9.6055;-1.2641;-0.9083;-9.3678;2.7549;2.929;-0.2281;-4.0573;-0.0556;-0.004;0.018;0.0;-28.56;133.62;13.08;21.33;72.79;18.25;0.0;867.9;46.402;19.520166;-96.915794;;;116.12903;0 / 0;94.1;86.0;3.988;139695;2014-11-08 13:55:26:699
1.8962;-9.5864;-1.3408;-1.3276;-9.4182;2.3885;3.2717;-0.1873;-3.6526;-0.0052;-0.1124;0.0098;0.0;-28.68;133.74;13.26;17.12;73.82;29.07;0.0;867.9;46.402;19.520166;-96.915794;;;116.12903;0 / 0;94.1;86.0;3.988;131035;2014-11-08 13:55:26:849
1.9345;-9.596;-1.1971;-2.7558;-9.4107;0.1192;4.652;-0.1278;-1.4695;-0.0211;-0.0073;0.0122;0.0;-29.22;133.56;13.26;359.07;74.53;67.8;0.0;867.89;46.662;19.520166;-96.915794;;;116.12903;0 / 0;94.1;86.0;3.988;140208;2014-11-08 13:55:27:212
2.0207;-9.5768;-1.1875;-2.9373;-9.3172;-0.8556;4.8718;-0.2787;-0.3415;-0.026;-0.0742;0.0195;0.0;-29.46;133.5;13.08;342.37;71.82;106.24;0.0;867.89;54.094;19.520166;-96.915794;;;116.12903;0 / 0;94.1;86.0;3.988;131555;2014-11-08 13:55:27:369
1.8387;-9.5768;-1.1013;-2.7655;-9.0491;-2.5759;4.6043;-0.5277;1.4746;-0.0531;-0.0321;0.0024;0.0;-29.4;133.62;13.32;335.09;67.33;132.97;0.0;867.98;75.213;19.520166;-96.915794;;;116.12903;0 / 0;94.1;86.0;3.988;140709;2014-11-08 13:55:27:713
2.1452;-9.5768;-1.3599;-2.7697;-9.0259;-2.6519;4.7616;-0.5126;1.2153;-0.0064;-0.0192;0.0238;0.0;-29.64;133.56;13.38;334.81;66.98;133.76;0.0;867.97;75.213;19.520166;-96.915794;;;116.12903;0 / 0;94.1;86.0;3.988;132066;2014-11-08 13:55:27:880
1.9345;-9.5768;-1.2737;-1.3448;-8.5537;-4.604;3.2123;-1.0614;3.3398;0.007;0.014;0.0153;0.0;-29.82;133.86;13.44;332.38;60.72;163.72;0.0;867.82;69.79;19.520166;-96.915794;;;116.12903;0 / 0;94.1;86.0;3.988;141215;2014-11-08 13:55:28:219
1.9154;-9.6055;-1.1779;-1.3427;-8.5854;-4.5452;3.2485;-1.0106;3.4151;-0.0055;-0.0144;0.0244;0.0;-29.88;133.74;13.32;332.1;61.1;163.54;0.0;867.9;68.116;19.520166;-96.915794;;;116.12903;0 / 0;94.1;86.0;3.988;132579;2014-11-08 13:55:28:393
1.9249;-9.6343;-1.1205;-1.8061;-8.7999;-3.9332;3.7119;-0.8152;2.7648;-0.0195;-0.0092;0.0156;0.0;-29.94;133.68;13.08;331.54;62.44;160.11;0.0;867.95;70.88;19.520166;-96.915794;;;116.12903;0 / 0;94.1;86.0;3.988;141732;2014-11-08 13:55:28:736
1.9249;-9.596;-1.1301;-1.7659;-8.7933;-3.966;3.71;-0.8601;2.8838;-0.0168;-0.0031;0.0192;0.0;-29.94;133.68;13.08;331.54;62.44;160.11;0.0;867.95;70.88;19.520166;-96.915794;;;116.12903;0 / 0;94.1;86.0;3.988;133084;2014-11-08 13:55:28:898
1.9058;-9.6247;-0.996;-1.8337;-8.8339;-3.8433;3.7395;-0.7238;2.7611;-0.0186;-0.0073;0.0165;0.0;-29.4;133.86;13.26;331.64;64.26;154.49;0.0;867.91;53.216;19.520166;-96.915794;;;116.12903;0 / 0;94.1;86.0;3.988;142232;2014-11-08 13:55:29:236
1.9441;-9.6343;-1.1205;-1.9817;-8.8957;-3.6207;3.8683;-0.7481;2.5864;-0.0116;-0.0593;0.0113;0.0;-29.46;133.86;13.38;331.64;64.42;153.88;0.0;867.92;53.216;19.520166;-96.915794;;;116.12903;0 / 0;94.1;86.0;3.988;133609;2014-11-08 13:55:29:423
1.9249;-9.6151;-1.1492;-2.3065;-9.0007;-3.1366;4.3272;-0.5665;1.9586;-0.0153;-0.0021;0.0214;0.0;-29.28;133.8;13.44;331.89;65.49;148.96;0.0;867.91;71.059;19.520166;-96.915794;;;116.12903;0 / 0;94.1;86.0;3.988;142733;2014-11-08 13:55:29:737
1.9154;-9.6151;-1.0918;-2.1395;-8.9265;-3.4513;4.0835;-0.7078;2.3212;-6.0E-4;-0.0418;0.0168;0.0;-29.4;133.74;13.5;331.33;65.54;148.21;0.0;867.99;75.856;19.520166;-96.915794;;;116.12903;0 / 0;94.1;86.0;3.988;134110;2014-11-08 13:55:29:924
1.8579;-9.5864;-1.063;-2.2067;-8.9478;-3.3524;3.9688;-0.6674;2.2989;-0.0092;-0.0519;0.0031;0.0;-29.7;133.8;13.32;331.77;65.84;146.64;0.0;867.86;75.359;19.520166;-96.915794;;;116.12903;0 / 0;94.1;86.0;3.988;143233;2014-11-08 13:55:30:237
1.8196;-9.6534;-0.9577;-2.4582;-9.0292;-2.9326;4.2778;-0.6242;1.9749;-0.015;-0.0541;6.0E-4;0.0;-29.76;133.26;12.96;332.6;67.03;140.03;0.0;867.86;75.359;19.520166;-96.915794;;;116.12903;0 / 0;94.1;86.0;3.988;134610;2014-11-08 13:55:30:424
1.8962;-9.6438;-1.063;-2.5878;-9.0734;-2.6733;4.484;-0.5704;1.6102;-0.0214;-0.0177;0.0125;0.0;-30.0;133.2;13.08;333.41;67.7;135.93;0.0;867.98;61.423;19.520166;-96.915794;;;116.12903;0 / 0;94.1;86.0;3.988;143734;2014-11-08 13:55:30:738
1.9058;-9.5577;-1.0534;-2.5046;-9.0379;-2.866;4.4009;-0.5868;1.87;-0.0434;-0.0134;0.0156;0.0;-29.94;133.08;12.9;333.1;67.33;137.76;0.0;867.98;61.423;19.520166;-96.915794;;;116.12903;0 / 0;94.1;86.0;3.988;135138;2014-11-08 13:55:30:952
1.8387;-9.6055;-1.0822;-2.5246;-9.0515;-2.805;4.392;-0.5732;1.742;-0.0229;-0.0492;0.0116;0.0;-29.76;133.14;12.9;333.01;67.39;137.87;0.0;867.9;62.198;19.520166;-96.915794;;;116.12903;0 / 0;94.1;86.0;3.988;144234;2014-11-08 13:55:31:238
1.9441;-9.6438;-1.1301;-2.4426;-9.0197;-2.9749;4.3867;-0.6242;1.8448;-0.0299;-0.0446;0.007;0.0;-29.88;133.14;13.38;332.94;67.3;138.3;0.0;867.91;59.509;19.520166;-96.915794;;;116.12903;0 / 0;94.1;86.0;3.988;135638;2014-11-08 13:55:31:452
1.8962;-9.596;-1.0439;-2.2763;-8.9872;-3.1968;4.182;-0.6184;2.1817;-0.0205;-0.0186;0.0031;0.0;-29.4;133.26;13.56;331.39;66.41;144.55;0.0;867.95;60.417;19.520166;-96.915794;;;116.12903;0 / 0;94.1;86.0;3.988;144749;2014-11-08 13:55:31:753
1.9824;-9.6247;-1.0439;-2.3505;-9.0381;-2.9932;4.3042;-0.5771;1.9684;-0.0354;-0.0131;0.015;0.0;-29.28;133.32;13.68;331.52;67.16;141.86;0.0;867.95;60.417;19.520166;-96.915794;;;116.12903;0 / 0;94.1;86.0;3.988;136142;2014-11-08 13:55:31:956
1.9728;-9.5864;-1.2067;-2.2792;-9.0478;-3.0187;4.2808;-0.5481;1.8312;-0.0174;-0.0559;0.0034;0.0;-29.04;133.38;13.74;331.56;67.48;140.81;0.0;867.98;68.384;19.520166;-96.915794;;;116.12903;0 / 0;94.1;86.0;3.988;145253;2014-11-08 13:55:32:257
1.9058;-9.6343;-1.1205;-2.0355;-8.9639;-3.4169;3.9987;-0.6703;2.2773;-0.025;-0.0318;-0.0064;0.0;-28.86;133.2;13.5;331.06;67.31;142.95;0.0;867.98;59.449;19.520166;-96.915794;;;116.12903;0 / 0;94.1;86.0;3.988;136647;2014-11-08 13:55:32:461
1.9632;-9.596;-1.2258;-1.7603;-8.9126;-3.6928;3.7236;-0.6833;2.467;0.0012;-0.0806;0.022;0.0;-29.1;133.62;13.14;330.68;65.34;154.51;0.0;867.92;59.449;19.520166;-96.915794;;;116.12903;0 / 0;94.1;86.0;3.988;145753;2014-11-08 13:55:32:757
1.9058;-9.5864;-1.1492;-1.5554;-8.8511;-3.9253;3.375;-0.7831;2.7474;-0.036;-0.1054;0.0061;0.0;-29.16;133.68;13.2;330.64;64.5;158.38;0.0;867.84;62.768;19.520166;-96.915794;;;116.12903;0 / 0;94.1;86.0;3.988;137152;2014-11-08 13:55:32:966
2.0782;-9.5768;-1.1779;-1.2733;-8.8175;-4.0989;3.3515;-0.7593;2.921;-0.0159;-0.0608;0.0061;0.0;-29.4;133.5;13.14;330.61;64.4;158.97;0.0;867.97;76.186;19.520166;-96.915794;;;116.12903;0 / 0;94.1;86.0;3.988;146259;2014-11-08 13:55:33:263
2.0494;-9.596;-1.2258;-1.0813;-8.7834;-4.2252;3.1307;-0.8125;2.9994;-0.0122;-0.011;0.0223;0.0;-29.64;133.68;13.02;329.64;64.04;162.74;0.0;867.97;76.186;19.520166;-96.915794;;;116.12903;0 / 0;94.1;86.0;3.988;137659;2014-11-08 13:55:33:473
1.9632;-9.6055;-1.2163;-0.4989;-8.6612;-4.5722;2.4047;-0.9635;3.3751;-0.0064;-0.0754;0.0199;0.0;-29.64;133.44;13.26;329.88;62.03;173.77;0.0;867.95;73.663;19.520166;-96.915794;;;116.12903;0 / 0;94.1;86.0;3.988;146769;2014-11-08 13:55:33:773
1.9824;-9.6247;-1.1492;-0.608;-8.718;-4.4494;2.5042;-0.9163;3.3481;-0.0174;-0.0895;0.0208;0.0;-29.94;133.38;13.14;329.42;62.66;172.13;0.0;867.95;69.825;19.520166;-96.915794;;;116.12903;0 / 0;94.1;86.0;3.988;138166;2014-11-08 13:55:33:980
1.9632;-9.5768;-1.1588;-0.8636;-8.8247;-4.1893;2.8268;-0.7521;3.0305;-0.0092;-0.0895;0.0076;0.0;-30.06;133.56;13.2;328.88;63.69;169.62;0.0;867.9;69.825;19.520166;-96.915794;;;116.12903;0 / 0;94.1;86.0;3.988;147270;2014-11-08 13:55:34:274
1.9824;-9.6151;-1.1492;-0.7671;-8.8354;-4.1853;2.7495;-0.7797;3.0361;0.0012;-0.0678;0.0308;0.0;-30.06;133.74;13.44;328.35;64.45;167.83;0.0;867.86;72.913;19.520166;-96.915794;;;116.12903;0 / 0;94.1;86.0;3.988;138671;2014-11-08 13:55:34:485
1.8579;-9.6055;-1.0056;-0.9541;-8.9241;-3.9523;2.812;-0.6814;2.9467;0.0076;-0.0623;0.0122;0.0;-30.3;133.62;13.44;328.01;64.48;169.88;0.0;867.86;71.781;19.520166;-96.915794;;;116.12903;0 / 0;94.1;86.0;3.988;147770;2014-11-08 13:55:34:774
1.7813;-9.6151;-0.996;-1.6161;-9.1455;-3.1495;3.3974;-0.4696;2.1535;-0.0211;-0.0559;0.0101;0.0;-30.6;133.62;13.26;326.78;65.51;166.43;0.0;867.85;71.781;19.520166;-96.915794;;;116.12903;0 / 0;94.1;86.0;3.988;139171;2014-11-08 13:55:34:985
1.8483;-9.6534;-1.0726;-1.9751;-9.249;-2.5932;3.7852;-0.3469;1.511;-0.0082;-0.0226;0.0031;0.0;-30.54;133.44;12.6;327.41;70.26;145.32;0.0;867.85;63.607;19.520166;-96.915794;;;116.12903;0 / 0;94.1;86.0;3.988;148271;2014-11-08 13:55:35:275
1.8292;-9.6151;-0.9481;-1.9901;-9.2302;-2.6482;3.7906;-0.4328;1.6618;-0.0021;-0.0223;0.0134;0.0;-30.6;133.14;12.18;328.89;70.59;142.71;0.0;867.85;63.103;19.520166;-96.915794;;;116.12903;0 / 0;94.1;86.0;3.988;139672;2014-11-08 13:55:35:486
